Soundfile,CorrAns,trials.thisRepN,trials.thisTrialN,trials.thisN,trials.thisIndex,Instruc.started,Instruc.stopped,Trigger.keys,Trigger.corr,Trigger.rt,Trigger.started,Trigger.stopped,Tone.started,Tone.stopped,Response.keys,Response.corr,Response.started,Response.stopped,Response_screen.started,Response_screen.stopped,jitter_pre_fb,jitter_post_fb,jitter_cross_pre_fb.started,jitter_cross_pre_fb.stopped,FB_text.started,FB_text.stopped,jitter_cross_post_fb.started,jitter_cross_post_fb.stopped,Response.rt,participant,session,Group_ID,date,expName,psychopyVersion,frameRate,
,,,,,,21.32399113414749,None,5,1,35.21738821158715,21.32399113414749,None,,,,,,,,,,,,,,,,,,Subj_040,Run1,group_mand,2022_Mar_11_1541,Tone_Learning,2021.1.4,60.00146517351673,
stimuli/di2-aN.wav,2,0,0,0,5,,,,,,,,56.61001566706373,56.90998781529197,None,0,56.61178912067999,None,56.61178912067999,None,2.5,1.3,58.578670638817584,None,61.095465398862416,None,61.845409571454184,None,,Subj_040,Run1,group_mand,2022_Mar_11_1541,Tone_Learning,2021.1.4,60.00146517351673,
stimuli/lu4-aN.wav,4,0,1,1,11,,,,,,,,64.34541017308052,64.64563521681384,2,0,64.34698211718023,None,64.34698211718023,None,2.1,1.4,66.36208896075368,None,68.46343083576903,None,69.22876355473545,None,1.077129590012646,Subj_040,Run1,group_mand,2022_Mar_11_1541,Tone_Learning,2021.1.4,60.00146517351673,
stimuli/di3-aN.wav,3,0,2,2,6,,,,,,,,71.32880457151228,71.62884063371803,1,0,71.328850507472,None,71.328850507472,None,3.0,1.0,73.3289573846655,None,76.32889226743464,None,77.0787115140356,None,1.4759336979191175,Subj_040,Run1,group_mand,2022_Mar_11_1541,Tone_Learning,2021.1.4,60.00146517351673,
stimuli/bu1-iN.wav,1,0,3,3,20,,,,,,,,80.07889879685277,80.3789596319175,3,0,80.07895641144569,None,80.07895641144569,None,3.4,1.7,82.07900489547092,None,85.47902924365235,None,86.2289847409802,None,1.3578673116107893,Subj_040,Run1,group_mand,2022_Mar_11_1541,Tone_Learning,2021.1.4,60.00146517351673,
stimuli/bu2-iN.wav,2,0,4,4,21,,,,,,,,89.62901694569715,89.92901974149163,3,0,89.62904483285911,None,89.62904483285911,None,3.1,2.6,91.62903740100137,None,94.72920893535775,None,95.47905437040981,None,0.9542459442404834,Subj_040,Run1,group_mand,2022_Mar_11_1541,Tone_Learning,2021.1.4,60.00146517351673,
stimuli/null.wav,0,0,5,5,40,,,,,,,,98.57906601365372,98.87906668606001,None,0,98.57905214085258,None,98.57905214085258,None,2.6,1.8,100.57906912795625,None,103.17891596090521,None,103.92914926815638,None,,Subj_040,Run1,group_mand,2022_Mar_11_1541,Tone_Learning,2021.1.4,60.00146517351673,
stimuli/null.wav,0,0,6,6,41,,,,,,,,106.52921417304802,106.8291943193708,None,0,106.52926117070137,None,106.52926117070137,None,3.2,1.6,108.52921056328842,None,111.72972774981372,None,112.47968572442733,None,,Subj_040,Run1,group_mand,2022_Mar_11_1541,Tone_Learning,2021.1.4,60.00146517351673,
stimuli/di1-iN.wav,1,0,7,7,24,,,,,,,,115.67969832319582,115.97976623622026,1,1,115.67978354183197,None,115.67978354183197,None,3.7,2.4,117.67993854915267,None,121.39701833864001,None,122.1470290440543,None,1.2447462958380129,Subj_040,Run1,group_mand,2022_Mar_11_1541,Tone_Learning,2021.1.4,60.00146517351673,
stimuli/mi3-aN.wav,3,0,8,8,18,,,,,,,,125.84707119330474,126.14702479727839,4,0,125.84714402551162,None,125.84714402551162,None,3.0,1.6,127.84712703840796,None,130.84898818794636,None,131.61407424001254,None,1.265684670519022,Subj_040,Run1,group_mand,2022_Mar_11_1541,Tone_Learning,2021.1.4,60.00146517351673,
stimuli/lu3-aN.wav,3,0,9,9,10,,,,,,,,134.61396920308894,134.91410187944575,None,0,134.61488785149595,None,134.61488785149595,None,3.4,1.9,136.6140505288472,None,140.0306068678151,None,140.78076833377372,None,,Subj_040,Run1,group_mand,2022_Mar_11_1541,Tone_Learning,2021.1.4,60.00146517351673,
stimuli/ma3-aN.wav,3,0,10,10,14,,,,,,,,144.18063066745495,None,1,0,144.1807548148704,None,144.1807548148704,None,3.0,2.4,146.1805654794448,None,149.18252713601305,None,149.94746490482066,None,1.0391503192336131,Subj_040,Run1,group_mand,2022_Mar_11_1541,Tone_Learning,2021.1.4,60.00146517351673,
stimuli/ma2-iN.wav,2,0,11,11,33,,,,,,,,152.9474993037053,153.2475456289526,2,1,152.94754913254292,None,152.94754913254292,None,3.4,2.2,154.94755267152277,None,158.36433904418482,None,159.11431152861633,None,1.5340210986905731,Subj_040,Run1,group_mand,2022_Mar_11_1541,Tone_Learning,2021.1.4,60.00146517351673,
stimuli/null.wav,0,0,12,12,44,,,,,,,,162.51427507712302,162.814369178599,None,0,162.5143358767982,None,162.5143358767982,None,2.0,2.7,164.51514134862737,None,166.51504261108767,None,167.26538279553188,None,,Subj_040,Run1,group_mand,2022_Mar_11_1541,Tone_Learning,2021.1.4,60.00146517351673,
stimuli/ma3-iN.wav,3,0,13,13,34,,,,,,,,169.26507178997704,None,2,0,169.2652490220912,None,169.2652490220912,None,2.1,2.1,171.26513754422376,None,173.3821164020037,None,174.13208393186324,None,1.5000323816661876,Subj_040,Run1,group_mand,2022_Mar_11_1541,Tone_Learning,2021.1.4,60.00146517351673,
stimuli/di4-aN.wav,4,0,14,14,7,,,,,,,,176.2320764646153,176.53211712749453,1,0,176.23214717343444,None,176.23214717343444,None,2.8,1.7,178.23213655649442,None,181.03221568808567,None,181.78220374402827,None,1.3837390242961192,Subj_040,Run1,group_mand,2022_Mar_11_1541,Tone_Learning,2021.1.4,60.00146517351673,
stimuli/ma1-aN.wav,1,0,15,15,12,,,,,,,,184.58227126776515,None,1,1,184.58240107754864,None,184.58240107754864,None,3.9,3.0,186.58254122115295,None,190.49906517845466,None,191.24903483170192,None,1.2496467213295546,Subj_040,Run1,group_mand,2022_Mar_11_1541,Tone_Learning,2021.1.4,60.00146517351673,
stimuli/ma1-iN.wav,1,0,16,16,32,,,,,,,,195.1487869261588,None,2,0,195.14880101129893,None,195.14880101129893,None,2.4,1.8,197.14909191544803,None,199.55092928304157,None,200.3158051197006,None,1.9237314438014437,Subj_040,Run1,group_mand,2022_Mar_11_1541,Tone_Learning,2021.1.4,60.00146517351673,
stimuli/bu4-aN.wav,4,0,17,17,3,,,,,,,,202.71580618139447,203.0158408280081,4,1,202.71585601023162,None,202.71585601023162,None,3.1,2.6,204.71603437481963,None,207.83283628360368,None,208.58289688863488,None,1.4123212417002833,Subj_040,Run1,group_mand,2022_Mar_11_1541,Tone_Learning,2021.1.4,60.00146517351673,
stimuli/null.wav,0,0,18,18,42,,,,,,,,211.68263355313925,211.9829314998583,None,0,211.6830567443576,None,211.6830567443576,None,2.7,1.3,213.68308080942097,None,216.3830262737406,None,217.13304193372687,None,,Subj_040,Run1,group_mand,2022_Mar_11_1541,Tone_Learning,2021.1.4,60.00146517351673,
stimuli/di2-iN.wav,2,0,19,19,25,,,,,,,,219.83407499735463,220.13388173366093,3,0,219.83416623225685,None,219.83416623225685,None,2.9,2.1,221.83415773870502,None,224.75091774596694,None,225.50111460172457,None,1.6174925407149203,Subj_040,Run1,group_mand,2022_Mar_11_1541,Tone_Learning,2021.1.4,60.00146517351673,
stimuli/lu1-iN.wav,1,0,20,20,28,,,,,,,,228.40092898222807,None,3,0,228.40193999801113,None,228.40193999801113,None,2.3,1.3,230.41757910416345,None,232.71785517998705,None,233.46761249443898,None,1.3134010906428557,Subj_040,Run1,group_mand,2022_Mar_11_1541,Tone_Learning,2021.1.4,60.00146517351673,
stimuli/lu2-iN.wav,2,0,21,21,29,,,,,,,,235.76787731630625,None,4,0,235.76764473454614,None,235.76764473454614,None,3.5,1.3,237.76771622194065,None,241.2676912721322,None,242.01751582720271,None,0.9125249099947723,Subj_040,Run1,group_mand,2022_Mar_11_1541,Tone_Learning,2021.1.4,60.00146517351673,
stimuli/mi2-aN.wav,2,0,22,22,17,,,,,,,,245.5177899919769,None,3,0,245.51775913207211,None,245.51775913207211,None,3.1,2.9,247.51786388587743,None,250.6178057404377,None,251.3678125529741,None,1.3472418783062494,Subj_040,Run1,group_mand,2022_Mar_11_1541,Tone_Learning,2021.1.4,60.00146517351673,
stimuli/ma4-iN.wav,4,0,23,23,35,,,,,,,,254.4679473527191,254.7678549499533,2,0,254.46787508674925,None,254.46787508674925,None,3.9,1.5,256.4677685634538,None,260.3680047195835,None,261.1180182561816,None,1.5807066139641393,Subj_040,Run1,group_mand,2022_Mar_11_1541,Tone_Learning,2021.1.4,60.00146517351673,
stimuli/mi3-iN.wav,3,0,24,24,38,,,,,,,,265.0180662093595,265.31803856992656,3,1,265.01805339825205,None,265.01805339825205,None,2.3,1.5,267.0180856029692,None,269.3196477440947,None,270.0847532605503,None,1.051476232387813,Subj_040,Run1,group_mand,2022_Mar_11_1541,Tone_Learning,2021.1.4,60.00146517351673,
stimuli/lu1-aN.wav,1,0,25,25,8,,,,,,,,272.38609074723047,272.68583378189896,2,0,272.3858514414087,None,272.3858514414087,None,3.5,2.1,274.38590098712757,None,277.90261788961425,None,278.6525801110033,None,1.4192190674575613,Subj_040,Run1,group_mand,2022_Mar_11_1541,Tone_Learning,2021.1.4,60.00146517351673,
stimuli/ma2-aN.wav,2,0,26,26,13,,,,,,,,282.1523060877886,282.4529639487655,2,1,282.1523704264432,None,282.1523704264432,None,2.2,1.2,284.15298479335706,None,286.3697915505436,None,287.11985711014677,None,1.298482520800917,Subj_040,Run1,group_mand,2022_Mar_11_1541,Tone_Learning,2021.1.4,60.00146517351673,
stimuli/null.wav,0,0,27,27,43,,,,,,,,289.31969028263313,289.61975394888213,None,0,289.320454985414,None,289.320454985414,None,2.7,1.7,291.31989724217874,None,294.02009892864453,None,294.7699217142249,None,,Subj_040,Run1,group_mand,2022_Mar_11_1541,Tone_Learning,2021.1.4,60.00146517351673,
stimuli/mi1-aN.wav,1,0,28,28,16,,,,,,,,297.46983362901494,297.7699160518573,4,0,297.4705052566237,None,297.4705052566237,None,2.2,2.6,299.46981161656004,None,301.6866176659505,None,302.43654945211256,None,1.3789589241218891,Subj_040,Run1,group_mand,2022_Mar_11_1541,Tone_Learning,2021.1.4,60.00146517351673,
stimuli/di4-iN.wav,4,0,29,29,27,,,,,,,,304.63662327523355,304.9365053918127,3,0,304.63662568174004,None,304.63662568174004,None,3.0,1.7,306.636665672213,None,309.6367343284237,None,310.386821475804,None,1.299133339207856,Subj_040,Run1,group_mand,2022_Mar_11_1541,Tone_Learning,2021.1.4,60.00146517351673,
stimuli/bu3-aN.wav,3,0,30,30,2,,,,,,,,313.38726993533885,313.68728228637883,4,0,313.3872956991131,None,313.3872956991131,None,2.4,2.8,315.3873622319352,None,317.78742090822243,None,318.53744824684236,None,1.6169277195203904,Subj_040,Run1,group_mand,2022_Mar_11_1541,Tone_Learning,2021.1.4,60.00146517351673,
stimuli/bu4-iN.wav,4,0,31,31,23,,,,,,,,320.9382887545727,None,2,0,320.93848580497433,None,320.93848580497433,None,3.3,1.8,322.9383944992924,None,326.2385750226581,None,326.9883762204613,None,1.5141996260713313,Subj_040,Run1,group_mand,2022_Mar_11_1541,Tone_Learning,2021.1.4,60.00146517351673,
stimuli/di3-iN.wav,3,0,32,32,26,,,,,,,,330.28837243375267,None,3,1,330.28914987686085,None,330.28914987686085,None,3.1,1.8,332.2884201392021,None,335.38915614085545,None,336.13855814172393,None,1.010420526366488,Subj_040,Run1,group_mand,2022_Mar_11_1541,Tone_Learning,2021.1.4,60.00146517351673,
stimuli/mi4-iN.wav,4,0,33,33,39,,,,,,,,339.2383946054621,None,2,0,339.23855661996276,None,339.23855661996276,None,2.7,2.4,341.2386270456627,None,343.940563540084,None,344.7054563638467,None,1.6148022081815725,Subj_040,Run1,group_mand,2022_Mar_11_1541,Tone_Learning,2021.1.4,60.00146517351673,
stimuli/di1-aN.wav,1,0,34,34,4,,,,,,,,347.40545179856247,None,1,1,347.4054485427009,None,347.4054485427009,None,3.7,3.0,349.4055334782188,None,353.1060993257179,None,353.85597979667136,None,1.2915376266114436,Subj_040,Run1,group_mand,2022_Mar_11_1541,Tone_Learning,2021.1.4,60.00146517351673,
stimuli/mi2-iN.wav,2,0,35,35,37,,,,,,,,357.55552436534583,None,4,0,357.5555540219975,None,357.5555540219975,None,3.9,2.2,359.55675515178154,None,363.45831488640033,None,364.2235219715799,None,1.652127475472298,Subj_040,Run1,group_mand,2022_Mar_11_1541,Tone_Learning,2021.1.4,60.00146517351673,
stimuli/bu3-iN.wav,3,0,36,36,22,,,,,,,,368.12349100550557,368.42336569022655,1,0,368.12352030825923,None,368.12352030825923,None,3.3,1.0,370.12352207774893,None,373.4236013862892,None,374.1735498056569,None,1.1779802546152496,Subj_040,Run1,group_mand,2022_Mar_11_1541,Tone_Learning,2021.1.4,60.00146517351673,
stimuli/bu1-aN.wav,1,0,37,37,0,,,,,,,,377.4736079510968,None,2,0,377.4736199128488,None,377.4736199128488,None,3.0,2.6,379.4736333609726,None,382.47367759822146,None,383.22372723241506,None,1.9248490536588179,Subj_040,Run1,group_mand,2022_Mar_11_1541,Tone_Learning,2021.1.4,60.00146517351673,
stimuli/lu3-iN.wav,3,0,38,38,30,,,,,,,,386.22349054543804,None,4,0,386.22366671585814,None,386.22366671585814,None,3.0,2.2,388.2237884567676,None,391.2237527130701,None,391.97376094119863,None,1.5133102804179543,Subj_040,Run1,group_mand,2022_Mar_11_1541,Tone_Learning,2021.1.4,60.00146517351673,
stimuli/lu2-aN.wav,2,0,39,39,9,,,,,,,,394.97394291554576,395.2738568829441,1,0,394.9738784353317,None,394.9738784353317,None,3.6,2.3,396.97389542243536,None,400.5738774444176,None,401.3239005362616,None,1.3500528900549398,Subj_040,Run1,group_mand,2022_Mar_11_1541,Tone_Learning,2021.1.4,60.00146517351673,
stimuli/lu4-iN.wav,4,0,40,40,31,,,,,,,,404.9239898601146,None,1,0,404.92400677643855,None,404.92400677643855,None,3.2,2.4,406.9239494449639,None,410.1249436859821,None,410.87495014462,None,1.0693303860712149,Subj_040,Run1,group_mand,2022_Mar_11_1541,Tone_Learning,2021.1.4,60.00146517351673,
stimuli/mi4-aN.wav,4,0,41,41,19,,,,,,,,414.07523949161816,None,4,1,414.0753346193983,None,414.0753346193983,None,2.9,1.9,416.075316924499,None,418.9920489738197,None,419.7420182731689,None,1.5438109788360634,Subj_040,Run1,group_mand,2022_Mar_11_1541,Tone_Learning,2021.1.4,60.00146517351673,
stimuli/ma4-aN.wav,4,0,42,42,15,,,,,,,,422.6420096026678,422.9420109828702,4,1,422.6420481067694,None,422.6420481067694,None,3.9,2.5,424.64204279829937,None,428.5420687390224,None,429.2920999705202,None,1.643769112703012,Subj_040,Run1,group_mand,2022_Mar_11_1541,Tone_Learning,2021.1.4,60.00146517351673,
stimuli/bu2-aN.wav,2,0,43,43,1,,,,,,,,433.1922123331325,None,4,0,433.1922338501304,None,433.1922338501304,None,2.0,2.4,435.1922189864149,None,437.19434025097735,None,437.9591307982205,None,1.226377574475464,Subj_040,Run1,group_mand,2022_Mar_11_1541,Tone_Learning,2021.1.4,60.00146517351673,
stimuli/mi1-iN.wav,1,0,44,44,36,,,,,,,,439.9591358235717,440.2591832105127,2,0,439.95919733104256,None,439.95919733104256,None,2.1,2.8,441.9591881296951,None,444.05922766010053,None,444.80925216753667,None,1.1932481217750137,Subj_040,Run1,group_mand,2022_Mar_11_1541,Tone_Learning,2021.1.4,60.00146517351673,
