Soundfile,CorrAns,trials.thisRepN,trials.thisTrialN,trials.thisN,trials.thisIndex,Instruc.started,Instruc.stopped,Trigger.keys,Trigger.corr,Trigger.rt,Trigger.started,Trigger.stopped,Tone.started,Tone.stopped,Response.keys,Response.corr,Response.rt,Response.started,Response.stopped,Response_screen.started,Response_screen.stopped,jitter_pre_fb,jitter_post_fb,jitter_cross_pre_fb.started,jitter_cross_pre_fb.stopped,FB_text.started,FB_text.stopped,jitter_cross_post_fb.started,jitter_cross_post_fb.stopped,participant,session,date,expName,psychopyVersion,frameRate,
,,,,,,12.810108462433618,None,5,1,30.839517781164886,12.810108462433618,None,,,,,,,,,,,,,,,,,,Subj_02,Run3,2021_Sep_27_1039,Tone_Learning,2021.1.4,60.12086848284276,
stimuli/mi3-aN.wav,3,0,0,0,18,,,,,,,,43.72822525250613,None,2,0,0.9886108959285593,43.727916734937025,None,43.727916734937025,None,2.8,2.5,45.71168258149737,None,48.51337953429356,None,49.27854734159291,None,Subj_02,Run3,2021_Sep_27_1039,Tone_Learning,2021.1.4,60.12086848284276,
stimuli/lu2-aN.wav,2,0,1,1,9,,,,,,,,52.07840026668841,52.37840858300251,1,0,0.746202010000161,52.078995431689236,None,52.078995431689236,None,2.1,2.0,54.07844124665462,None,56.178569317895835,None,56.9286092185107,None,Subj_02,Run3,2021_Sep_27_1039,Tone_Learning,2021.1.4,60.12086848284276,
stimuli/bu2-aN.wav,2,0,2,2,1,,,,,,,,59.02844646646886,None,3,0,0.9997646659971906,59.02821460054611,None,59.02821460054611,None,3.9,1.0,61.02786319202778,None,64.92877129816952,None,65.6788359707848,None,Subj_02,Run3,2021_Sep_27_1039,Tone_Learning,2021.1.4,60.12086848284276,
stimuli/null.wav,0,0,3,3,43,,,,,,,,69.5792883428982,69.87958932270158,None,0,,69.57997551818607,None,69.57997551818607,None,2.6,1.2,71.57963154126764,None,74.17973218636598,None,74.92974377612336,None,Subj_02,Run3,2021_Sep_27_1039,Tone_Learning,2021.1.4,60.12086848284276,
stimuli/ma4-aN.wav,4,0,4,4,15,,,,,,,,77.52969444445412,77.83001382631483,3,0,0.9795492982266296,77.52990033516517,None,77.52990033516517,None,2.2,1.2,79.52984796007877,None,81.73174790172288,None,82.49686014896452,None,Subj_02,Run3,2021_Sep_27_1039,Tone_Learning,2021.1.4,60.12086848284276,
stimuli/lu3-iN.wav,3,0,5,5,30,,,,,,,,84.69673947393463,None,2,0,1.0328912003128607,84.69734560939287,None,84.69734560939287,None,4.0,2.2,86.6967829311011,None,90.69691103773084,None,91.44690139434533,None,Subj_02,Run3,2021_Sep_27_1039,Tone_Learning,2021.1.4,60.12086848284276,
stimuli/di3-aN.wav,3,0,6,6,6,,,,,,,,95.44691526666534,None,1,0,0.8803239894527906,95.44697783366018,None,95.44697783366018,None,3.4,1.6,97.4476679108111,None,100.84793389131664,None,101.59795645153145,None,Subj_02,Run3,2021_Sep_27_1039,Tone_Learning,2021.1.4,60.12086848284276,
stimuli/mi4-aN.wav,4,0,7,7,19,,,,,,,,104.9980406055553,None,2,0,0.8760575432334008,104.99807061506408,None,104.99807061506408,None,2.7,2.7,106.99798532860586,None,109.69814999163054,None,110.44820192435964,None,Subj_02,Run3,2021_Sep_27_1039,Tone_Learning,2021.1.4,60.12086848284276,
stimuli/di4-iN.wav,4,0,8,8,27,,,,,,,,113.14818334535963,113.44822351138873,4,1,1.012043438764067,113.14825015898305,None,113.14825015898305,None,3.8,1.9,115.14826148332622,None,118.96514402617913,None,119.71512305845044,None,Subj_02,Run3,2021_Sep_27_1039,Tone_Learning,2021.1.4,60.12086848284276,
stimuli/lu4-aN.wav,4,0,9,9,11,,,,,,,,123.51637524767571,123.81641789090463,2,0,1.1913180508968253,123.51644736958497,None,123.51644736958497,None,3.9,2.1,125.51642684421358,None,129.4185636415691,None,130.18351416303722,None,Subj_02,Run3,2021_Sep_27_1039,Tone_Learning,2021.1.4,60.12086848284276,
stimuli/ma3-iN.wav,3,0,10,10,34,,,,,,,,134.0835478883461,134.38360362534695,3,1,1.0117366198464879,134.08422798591937,None,134.08422798591937,None,2.5,1.2,136.08361824082704,None,138.5847444821252,None,139.3504215309731,None,Subj_02,Run3,2021_Sep_27_1039,Tone_Learning,2021.1.4,60.12086848284276,
stimuli/bu2-iN.wav,2,0,11,11,21,,,,,,,,141.85048229315103,None,2,1,1.5010816516978593,141.85060360517537,None,141.85060360517537,None,3.9,1.1,143.85198835999108,None,147.75219860349625,None,148.50197592090808,None,Subj_02,Run3,2021_Sep_27_1039,Tone_Learning,2021.1.4,60.12086848284276,
stimuli/bu3-aN.wav,3,0,12,12,2,,,,,,,,152.40244351010747,None,1,0,1.540400478311767,152.40252341750283,None,152.40252341750283,None,3.0,2.2,154.4024657341306,None,157.40445457186706,None,158.1692730939626,None,Subj_02,Run3,2021_Sep_27_1039,Tone_Learning,2021.1.4,60.12086848284276,
stimuli/di4-aN.wav,4,0,13,13,7,,,,,,,,161.16928908959713,None,3,0,1.5088101618994187,161.16939624619272,None,161.16939624619272,None,3.3,1.8,163.1694068627644,None,166.46943896019866,None,167.22038693156674,None,Subj_02,Run3,2021_Sep_27_1039,Tone_Learning,2021.1.4,60.12086848284276,
stimuli/lu1-iN.wav,1,0,14,14,28,,,,,,,,170.52041909977848,None,3,0,1.1021614985784254,170.52039779585812,None,170.52039779585812,None,3.5,1.4,172.5209859539218,None,176.0369909663591,None,176.78754081629404,None,Subj_02,Run3,2021_Sep_27_1039,Tone_Learning,2021.1.4,60.12086848284276,
stimuli/ma1-iN.wav,1,0,15,15,32,,,,,,,,180.287357751212,180.58729210541105,4,0,1.4480847881868613,180.28728973437683,None,180.28728973437683,None,4.0,2.4,182.2873520182634,None,186.28747340106474,None,187.03750197733643,None,Subj_02,Run3,2021_Sep_27_1039,Tone_Learning,2021.1.4,60.12086848284276,
stimuli/di3-iN.wav,3,0,16,16,26,,,,,,,,191.03747444502747,None,4,0,1.5898860877259722,191.0373441443062,None,191.0373441443062,None,3.6,2.4,193.0389380455813,None,196.63930799771106,None,197.38899825923636,None,Subj_02,Run3,2021_Sep_27_1039,Tone_Learning,2021.1.4,60.12086848284276,
stimuli/ma3-aN.wav,3,0,17,17,14,,,,,,,,200.98902855185375,None,3,1,0.8606412196882047,200.98910845924865,None,200.98910845924865,None,2.7,2.6,202.98913181570606,None,205.69112217515158,None,206.45644073776657,None,Subj_02,Run3,2021_Sep_27_1039,Tone_Learning,2021.1.4,60.12086848284276,
stimuli/ma2-aN.wav,2,0,18,18,13,,,,,,,,209.1567321626559,None,2,1,1.1998516511071102,209.15674235456436,None,209.15674235456436,None,2.7,1.6,211.15651551381916,None,213.8574612026241,None,214.6074600524953,None,Subj_02,Run3,2021_Sep_27_1039,Tone_Learning,2021.1.4,60.12086848284276,
stimuli/bu1-aN.wav,1,0,19,19,0,,,,,,,,217.30749915686707,217.60750004158172,1,1,1.199831833506778,217.30794675152356,None,217.30794675152356,None,3.8,1.7,219.30758720363383,None,223.1082773515618,None,223.85829177240475,None,Subj_02,Run3,2021_Sep_27_1039,Tone_Learning,2021.1.4,60.12086848284276,
stimuli/bu3-iN.wav,3,0,20,20,22,,,,,,,,227.65805197944215,227.95836003695968,4,0,1.7249518803896535,227.65839163895453,None,227.65839163895453,None,3.1,2.4,229.65838279181162,None,232.77628725045315,None,233.52645596546927,None,Subj_02,Run3,2021_Sep_27_1039,Tone_Learning,2021.1.4,60.12086848284276,
stimuli/mi2-iN.wav,2,0,21,21,37,,,,,,,,236.62628082742745,None,2,1,1.2022612589626078,236.62627226339282,None,236.62627226339282,None,2.4,2.2,238.62640355499434,None,241.0258874480628,None,241.7768145401733,None,Subj_02,Run3,2021_Sep_27_1039,Tone_Learning,2021.1.4,60.12086848284276,
stimuli/null.wav,0,0,22,22,40,,,,,,,,244.1764619992206,244.47657683513626,None,0,,244.17678325667566,None,244.17678325667566,None,3.3,2.8,246.1766094987879,None,249.47663062576567,None,250.22662806009384,None,Subj_02,Run3,2021_Sep_27_1039,Tone_Learning,2021.1.4,60.12086848284276,
stimuli/mi4-iN.wav,4,0,23,23,39,,,,,,,,253.52663368687686,None,2,0,1.8672680836484687,253.52699387176108,None,253.52699387176108,None,2.7,1.8,255.52650975609822,None,258.22854045851545,None,258.9934202028403,None,Subj_02,Run3,2021_Sep_27_1039,Tone_Learning,2021.1.4,60.12086848284276,
stimuli/lu1-aN.wav,1,0,24,24,8,,,,,,,,261.6936288184712,None,1,1,1.4351796376990933,261.69372606626666,None,261.69372606626666,None,3.0,1.1,263.69367050620895,None,266.6957028718889,None,267.46073832592947,None,Subj_02,Run3,2021_Sep_27_1039,Tone_Learning,2021.1.4,60.12086848284276,
stimuli/ma1-aN.wav,1,0,25,25,12,,,,,,,,270.4607001770488,270.7612899275987,3,0,1.066828840695507,270.46083529061616,None,270.46083529061616,None,2.4,2.2,272.46099737027544,None,274.8629177665139,None,275.628059740156,None,Subj_02,Run3,2021_Sep_27_1039,Tone_Learning,2021.1.4,60.12086848284276,
stimuli/null.wav,0,0,26,26,44,,,,,,,,278.02781902709023,278.3278376060907,None,0,,278.0278546987706,None,278.0278546987706,None,2.3,1.4,280.02763104299675,None,282.3279331552344,None,283.07794509887754,None,Subj_02,Run3,2021_Sep_27_1039,Tone_Learning,2021.1.4,60.12086848284276,
stimuli/mi1-aN.wav,1,0,27,27,16,,,,,,,,285.3782002150916,285.67806626934726,2,0,1.3539628653561522,285.37832648151607,None,285.37832648151607,None,3.0,2.3,287.3780408957414,None,290.39561238331044,None,291.1460879172446,None,Subj_02,Run3,2021_Sep_27_1039,Tone_Learning,2021.1.4,60.12086848284276,
stimuli/di1-aN.wav,1,0,28,28,4,,,,,,,,294.1460886957931,294.4460977198787,4,0,1.2545797235516147,294.14617957364544,None,294.14617957364544,None,3.6,2.2,296.14616577210245,None,299.7461928089715,None,300.49626774427225,None,Subj_02,Run3,2021_Sep_27_1039,Tone_Learning,2021.1.4,60.12086848284276,
stimuli/mi3-iN.wav,3,0,29,29,38,,,,,,,,304.09629166694697,304.39633077131884,4,0,1.5240247705846741,304.09631141376985,None,304.09631141376985,None,2.3,1.7,306.09639599245656,None,308.3963739453761,None,309.14647471433454,None,Subj_02,Run3,2021_Sep_27_1039,Tone_Learning,2021.1.4,60.12086848284276,
stimuli/bu4-aN.wav,4,0,30,30,3,,,,,,,,311.44635223448734,311.74637081348783,2,0,1.1774510390264368,311.4463387160531,None,311.4463387160531,None,2.4,1.8,313.4465383075981,None,315.84792079754516,None,316.59786479513014,None,Subj_02,Run3,2021_Sep_27_1039,Tone_Learning,2021.1.4,60.12086848284276,
stimuli/bu1-iN.wav,1,0,31,31,20,,,,,,,,318.9979139144681,None,1,1,1.6932624759756436,318.9979506478053,None,318.9979506478053,None,2.0,2.3,320.99795383277706,None,322.9992264058201,None,323.76470634032285,None,Subj_02,Run3,2021_Sep_27_1039,Tone_Learning,2021.1.4,60.12086848284276,
stimuli/lu4-iN.wav,4,0,32,32,31,,,,,,,,325.7647502929291,326.0645055809546,2,0,1.3056213684690192,325.7647987044952,None,325.7647987044952,None,3.0,1.2,327.76480082780927,None,330.7667065024025,None,331.5317844227293,None,Subj_02,Run3,2021_Sep_27_1039,Tone_Learning,2021.1.4,60.12086848284276,
stimuli/lu2-iN.wav,2,0,33,33,29,,,,,,,,334.5317632603634,None,4,0,1.5497037799596,334.53168144198526,None,334.53168144198526,None,2.7,1.1,336.53327251217434,None,339.23332782451234,None,339.9832728837546,None,Subj_02,Run3,2021_Sep_27_1039,Tone_Learning,2021.1.4,60.12086848284276,
stimuli/null.wav,0,0,34,34,42,,,,,,,,342.68336577875573,342.9834123147275,None,0,,342.6838954748987,None,342.6838954748987,None,2.2,2.1,344.683175317462,None,346.8834870200026,None,347.63350073307447,None,Subj_02,Run3,2021_Sep_27_1039,Tone_Learning,2021.1.4,60.12086848284276,
stimuli/di1-iN.wav,1,0,35,35,24,,,,,,,,349.83358601953216,350.1335858425896,3,0,1.457819830410699,349.83370874709954,None,349.83370874709954,None,3.1,1.4,351.83354489801195,None,354.95042025698467,None,355.70030940228344,None,Subj_02,Run3,2021_Sep_27_1039,Tone_Learning,2021.1.4,60.12086848284276,
stimuli/di2-aN.wav,2,0,36,36,5,,,,,,,,358.8000914440696,None,2,1,1.0687093894021018,358.80012534632124,None,358.80012534632124,None,3.7,2.1,360.8016700574817,None,364.503371292295,None,365.26877832634,None,Subj_02,Run3,2021_Sep_27_1039,Tone_Learning,2021.1.4,60.12086848284276,
stimuli/ma4-iN.wav,4,0,37,37,35,,,,,,,,368.9687087877961,369.26880380611146,3,0,0.8680335384569844,368.9692098191963,None,368.9692098191963,None,2.9,2.8,370.9688435474777,None,373.87082534288857,None,374.63577020218554,None,Subj_02,Run3,2021_Sep_27_1039,Tone_Learning,2021.1.4,60.12086848284276,
stimuli/di2-iN.wav,2,0,38,38,25,,,,,,,,377.53570023897885,None,1,0,1.16291836811979,377.5356669029443,None,377.5356669029443,None,2.7,1.3,379.53596876746224,None,382.23578803802593,None,382.98592278001297,None,Subj_02,Run3,2021_Sep_27_1039,Tone_Learning,2021.1.4,60.12086848284276,
stimuli/null.wav,0,0,39,39,41,,,,,,,,385.68631329290304,385.98629896053126,None,0,,385.68607116429484,None,385.68607116429484,None,3.3,1.3,387.6863539189835,None,390.9864235283044,None,391.73647015274764,None,Subj_02,Run3,2021_Sep_27_1039,Tone_Learning,2021.1.4,60.12086848284276,
stimuli/lu3-aN.wav,3,0,40,40,10,,,,,,,,395.0365083370167,None,3,1,1.0527615295081887,395.0366254024125,None,395.0366254024125,None,3.6,1.1,397.03668662464133,None,400.653091492552,None,401.4033005505398,None,Subj_02,Run3,2021_Sep_27_1039,Tone_Learning,2021.1.4,60.12086848284276,
stimuli/mi1-iN.wav,1,0,41,41,36,,,,,,,,405.00340268195816,None,2,0,0.9896300867976606,405.00338916352393,None,405.00338916352393,None,2.3,1.3,407.00339942620985,None,409.32028674651974,None,410.0701861545044,None,Subj_02,Run3,2021_Sep_27_1039,Tone_Learning,2021.1.4,60.12086848284276,
stimuli/bu4-iN.wav,4,0,42,42,23,,,,,,,,412.36994653848444,412.6700015677138,4,1,1.6533116094688012,412.369992118965,None,412.369992118965,None,3.1,1.8,414.37067971891565,None,417.47247353023295,None,418.2379874377648,None,Subj_02,Run3,2021_Sep_27_1039,Tone_Learning,2021.1.4,60.12086848284276,
stimuli/mi2-aN.wav,2,0,43,43,17,,,,,,,,421.3379223581811,421.63801737649646,2,1,1.0442562401553914,421.3375372597425,None,421.3375372597425,None,3.3,1.5,423.33799554174766,None,426.63841726735836,None,427.3884660151157,None,Subj_02,Run3,2021_Sep_27_1039,Tone_Learning,2021.1.4,60.12086848284276,
stimuli/ma2-iN.wav,2,0,44,44,33,,,,,,,,430.688506676585,430.9885450731854,3,0,1.0249195706232967,430.68854871820804,None,430.68854871820804,None,3.3,2.1,432.68856039643697,None,436.0053511059459,None,436.75531704444575,None,Subj_02,Run3,2021_Sep_27_1039,Tone_Learning,2021.1.4,60.12086848284276,
