Soundfile,CorrAns,trials.thisRepN,trials.thisTrialN,trials.thisN,trials.thisIndex,Instruc.started,Instruc.stopped,Trigger.keys,Trigger.corr,Trigger.rt,Trigger.started,Trigger.stopped,Tone.started,Tone.stopped,Response.keys,Response.corr,Response.rt,Response.started,Response.stopped,Response_screen.started,Response_screen.stopped,jitter_pre_fb,jitter_post_fb,jitter_cross_pre_fb.started,jitter_cross_pre_fb.stopped,FB_text.started,FB_text.stopped,jitter_cross_post_fb.started,jitter_cross_post_fb.stopped,participant,session,Group_ID,date,expName,psychopyVersion,frameRate,
,,,,,,32.69324510000024,None,5,1,25.41461150000032,32.69324510000024,None,,,,,,,,,,,,,,,,,,Subj_048,Run4,group_Mand,2022_Sep_16_1414,Tone_Learning,2021.1.4,None,
stimuli/di3-iN.wav,3,0,0,0,26,,,,,,,,58.19124703333349,None,3,1,1.1412789000000885,58.210437400000046,None,58.210437400000046,None,2.8,2.2,60.164135400000305,None,63.01087460000008,None,63.74001390000012,None,Subj_048,Run4,group_Mand,2022_Sep_16_1414,Tone_Learning,2021.1.4,None,
stimuli/di2-aN.wav,2,0,1,1,5,,,,,,,,66.54622276666693,None,2,1,1.2936570999995638,66.55908100000033,None,66.55908100000033,None,2.6,1.2,68.58096939999996,None,71.21706429999995,None,71.98796859999993,None,Subj_048,Run4,group_Mand,2022_Sep_16_1414,Tone_Learning,2021.1.4,None,
stimuli/null.wav,0,0,2,2,42,,,,,,,,74.58811486666697,74.91784039999993,None,0,,74.60544960000016,None,74.60544960000016,None,3.6,1.9,76.61994370000002,None,80.23868870000024,None,80.98864700000013,None,Subj_048,Run4,group_Mand,2022_Sep_16_1414,Tone_Learning,2021.1.4,None,
stimuli/lu4-aN.wav,4,0,3,3,11,,,,,,,,84.60554996666703,None,4,1,1.0107764999997926,84.62277670000003,None,84.62277670000003,None,2.7,2.6,86.64954110000008,None,89.38471130000016,None,90.13205170000037,None,Subj_048,Run4,group_Mand,2022_Sep_16_1414,Tone_Learning,2021.1.4,None,
stimuli/ma4-iN.wav,4,0,4,4,35,,,,,,,,92.848083666667,None,4,1,0.8296080999998594,92.86030140000003,None,92.86030140000003,None,2.9,1.9,94.88308020000022,None,97.80655019999995,None,98.5824321,None,Subj_048,Run4,group_Mand,2022_Sep_16_1414,Tone_Learning,2021.1.4,None,
stimuli/mi4-iN.wav,4,0,5,5,39,,,,,,,,101.49784036666667,None,4,1,0.9455794000000424,101.50992360000009,None,101.50992360000009,None,2.6,1.0,103.51556150000033,None,106.13551989999996,None,106.90670130000035,None,Subj_048,Run4,group_Mand,2022_Sep_16_1414,Tone_Learning,2021.1.4,None,
stimuli/mi3-aN.wav,3,0,6,6,18,,,,,,,,109.5068753666667,None,3,1,1.3367268000001786,109.52410420000024,None,109.52410420000024,None,3.9,2.0,111.52547730000015,None,115.4574861000001,None,116.22392669999999,None,Subj_048,Run4,group_Mand,2022_Sep_16_1414,Tone_Learning,2021.1.4,None,
stimuli/ma3-iN.wav,3,0,7,7,34,,,,,,,,120.13256106666701,None,3,1,1.1168966000000182,120.14131840000027,None,120.14131840000027,None,2.2,1.8,122.15255060000027,None,124.38663540000016,None,125.15778470000032,None,Subj_048,Run4,group_Mand,2022_Sep_16_1414,Tone_Learning,2021.1.4,None,
stimuli/ma1-aN.wav,1,0,8,8,12,,,,,,,,127.3743371666667,None,1,1,0.9940179000000171,127.39188130000002,None,127.39188130000002,None,3.6,2.1,129.39254980000032,None,133.00436119999995,None,133.7749471000002,None,Subj_048,Run4,group_Mand,2022_Sep_16_1414,Tone_Learning,2021.1.4,None,
stimuli/mi1-aN.wav,1,0,9,9,16,,,,,,,,137.39191376666693,None,1,1,1.3675302999999985,137.40910440000016,None,137.40910440000016,None,3.8,1.6,139.42394760000025,None,143.25489020000032,None,144.0255301000002,None,Subj_048,Run4,group_Mand,2022_Sep_16_1414,Tone_Learning,2021.1.4,None,
stimuli/lu3-iN.wav,3,0,10,10,30,,,,,,,,147.83509306666681,None,3,1,1.6465013000001818,147.84737440000026,None,147.84737440000026,None,4.0,2.1,149.87352450000026,None,153.90521860000035,None,154.66982120000011,None,Subj_048,Run4,group_Mand,2022_Sep_16_1414,Tone_Learning,2021.1.4,None,
stimuli/lu1-iN.wav,1,0,11,11,28,,,,,,,,158.68526176666663,None,1,1,1.4674127000002954,158.6972713,None,158.6972713,None,2.9,2.2,160.70687750000025,None,163.63935149999998,None,164.40937140000005,None,Subj_048,Run4,group_Mand,2022_Sep_16_1414,Tone_Learning,2021.1.4,None,
stimuli/ma2-aN.wav,2,0,12,12,13,,,,,,,,167.32678396666668,None,2,1,1.3892214999996213,167.34440919999997,None,167.34440919999997,None,3.6,2.4,169.35626990000037,None,172.99010530000032,None,173.76049690000036,None,Subj_048,Run4,group_Mand,2022_Sep_16_1414,Tone_Learning,2021.1.4,None,
stimuli/mi3-iN.wav,3,0,13,13,38,,,,,,,,177.36066616666702,None,3,1,1.2598282000003564,177.37807480000038,None,177.37807480000038,None,3.8,1.7,179.3880862000001,None,183.22368610000012,None,183.97772460000033,None,Subj_048,Run4,group_Mand,2022_Sep_16_1414,Tone_Learning,2021.1.4,None,
stimuli/mi2-aN.wav,2,0,14,14,17,,,,,,,,187.77805586666662,None,2,1,1.3542451999996956,187.79535680000026,None,187.79535680000026,None,2.6,1.6,189.80188810000027,None,192.4243260000003,None,193.19493030000012,None,Subj_048,Run4,group_Mand,2022_Sep_16_1414,Tone_Learning,2021.1.4,None,
stimuli/mi1-iN.wav,1,0,15,15,36,,,,,,,,195.81192896666678,None,1,1,0.9966982000000826,195.82908160000034,None,195.82908160000034,None,2.2,2.7,197.8434701000001,None,200.05785090000018,None,200.82887580000033,None,Subj_048,Run4,group_Mand,2022_Sep_16_1414,Tone_Learning,2021.1.4,None,
stimuli/ma4-aN.wav,4,0,16,16,15,,,,,,,,203.04542776666702,None,4,1,1.141515199999958,203.0629312000001,None,203.0629312000001,None,2.6,1.1,205.07774210000025,None,207.70896110000012,None,208.47932960000026,None,Subj_048,Run4,group_Mand,2022_Sep_16_1414,Tone_Learning,2021.1.4,None,
stimuli/di2-iN.wav,2,0,17,17,25,,,,,,,,211.08784466666683,None,2,1,1.4902252000001681,211.10047610000038,None,211.10047610000038,None,2.9,1.8,213.10904700000037,None,216.02525920000016,None,216.79629980000027,None,Subj_048,Run4,group_Mand,2022_Sep_16_1414,Tone_Learning,2021.1.4,None,
stimuli/lu2-iN.wav,2,0,18,18,29,,,,,,,,219.69651746666685,None,2,1,1.0793305000001965,219.7137646000001,None,219.7137646000001,None,3.2,2.6,221.7262879,None,224.94718690000036,None,225.71361260000003,None,Subj_048,Run4,group_Mand,2022_Sep_16_1414,Tone_Learning,2021.1.4,None,
stimuli/ma3-aN.wav,3,0,19,19,14,,,,,,,,228.91414426666668,None,3,1,1.369985799999995,228.93095670000002,None,228.93095670000002,None,2.7,2.5,230.94277379999994,None,233.65966240000034,None,234.42901260000008,None,Subj_048,Run4,group_Mand,2022_Sep_16_1414,Tone_Learning,2021.1.4,None,
stimuli/null.wav,0,0,20,20,43,,,,,,,,237.14751766666703,237.4986060000001,None,0,,237.16484850000006,None,237.16484850000006,None,2.7,2.7,239.17951010000024,None,241.9147409000002,None,242.6645370000001,None,Subj_048,Run4,group_Mand,2022_Sep_16_1414,Tone_Learning,2021.1.4,None,
stimuli/bu1-iN.wav,1,0,21,21,20,,,,,,,,245.37437916666684,None,1,1,1.0049948000000768,245.38680020000038,None,245.38680020000038,None,2.1,1.6,247.38503489999994,None,249.5120681000003,None,250.26502000000028,None,Subj_048,Run4,group_Mand,2022_Sep_16_1414,Tone_Learning,2021.1.4,None,
stimuli/lu3-aN.wav,3,0,22,22,10,,,,,,,,252.38166256666662,None,3,1,1.2136407999996663,252.39910360000022,None,252.39910360000022,None,2.3,1.7,254.3985689000001,None,256.7156794000002,None,257.492033,None,Subj_048,Run4,group_Mand,2022_Sep_16_1414,Tone_Learning,2021.1.4,None,
stimuli/bu1-aN.wav,1,0,23,23,0,,,,,,,,259.8046828666668,None,1,1,0.9115864000000329,259.8153145000001,None,259.8153145000001,None,3.6,1.7,261.83262809999997,None,265.4619399000003,None,266.23248660000036,None,Subj_048,Run4,group_Mand,2022_Sep_16_1414,Tone_Learning,2021.1.4,None,
stimuli/bu2-aN.wav,2,0,24,24,1,,,,,,,,269.83982516666697,None,2,1,1.0953379000002315,269.8524115,None,269.8524115,None,2.9,1.6,271.8587861000001,None,274.7957566,None,275.5664651000002,None,Subj_048,Run4,group_Mand,2022_Sep_16_1414,Tone_Learning,2021.1.4,None,
stimuli/null.wav,0,0,25,25,41,,,,,,,,278.47524036666687,278.80822910000006,None,0,,278.48747730000014,None,278.48747730000014,None,3.1,2.3,280.5099444000002,None,283.65042059999996,None,284.40732449999996,None,Subj_048,Run4,group_Mand,2022_Sep_16_1414,Tone_Learning,2021.1.4,None,
stimuli/lu2-aN.wav,2,0,26,26,9,,,,,,,,287.5174338666668,None,2,1,1.1938404000002265,287.5345762000002,None,287.5345762000002,None,3.1,2.5,289.5324604000002,None,292.66273309999997,None,293.4106624000001,None,Subj_048,Run4,group_Mand,2022_Sep_16_1414,Tone_Learning,2021.1.4,None,
stimuli/di4-aN.wav,4,0,27,27,7,,,,,,,,296.5343212666669,None,4,1,1.2733643999999913,296.5516155,None,296.5516155,None,2.9,2.5,298.56692169999997,None,301.4847874000002,None,302.2611707000001,None,Subj_048,Run4,group_Mand,2022_Sep_16_1414,Tone_Learning,2021.1.4,None,
stimuli/di1-iN.wav,1,0,28,28,24,,,,,,,,305.1815962666667,None,1,1,0.9773392000001877,305.1874957,None,305.1874957,None,2.1,3.0,307.21915620000027,None,309.3519988000003,None,310.11847850000004,None,Subj_048,Run4,group_Mand,2022_Sep_16_1414,Tone_Learning,2021.1.4,None,
stimuli/null.wav,0,0,29,29,40,,,,,,,,312.2356040666666,312.58914040000036,None,0,,312.2525257000002,None,312.2525257000002,None,4.0,2.7,314.26795530000027,None,318.28817260000005,None,319.0617970000003,None,Subj_048,Run4,group_Mand,2022_Sep_16_1414,Tone_Learning,2021.1.4,None,
stimuli/di4-iN.wav,4,0,30,30,27,,,,,,,,323.06092576666674,None,4,1,0.9933297000002312,323.07377240000005,None,323.07377240000005,None,2.3,1.0,325.0828958000002,None,327.39197749999994,None,328.16142000000036,None,Subj_048,Run4,group_Mand,2022_Sep_16_1414,Tone_Learning,2021.1.4,None,
stimuli/lu1-aN.wav,1,0,31,31,8,,,,,,,,330.46106416666703,None,1,1,0.8499256000000059,330.4682947000001,None,330.4682947000001,None,2.3,1.2,332.4996873,None,334.8324888000002,None,335.6033030000003,None,Subj_048,Run4,group_Mand,2022_Sep_16_1414,Tone_Learning,2021.1.4,None,
stimuli/di3-aN.wav,3,0,32,32,6,,,,,,,,337.92022996666697,None,3,1,1.7575704999999289,337.9373862000002,None,337.9373862000002,None,3.8,1.6,339.9641974000001,None,343.7872362000003,None,344.5440972000001,None,Subj_048,Run4,group_Mand,2022_Sep_16_1414,Tone_Learning,2021.1.4,None,
stimuli/null.wav,0,0,33,33,44,,,,,,,,348.345761766667,348.6685501000002,None,0,,348.3578332000002,None,348.3578332000002,None,2.2,2.6,350.36297950000016,None,352.5918216,None,353.3645510000001,None,Subj_048,Run4,group_Mand,2022_Sep_16_1414,Tone_Learning,2021.1.4,None,
stimuli/bu3-iN.wav,3,0,34,34,22,,,,,,,,355.5789604666668,None,3,1,0.9938911000003827,355.59134889999996,None,355.59134889999996,None,2.1,2.2,357.60787130000017,None,359.7374675000001,None,360.48799940000026,None,Subj_048,Run4,group_Mand,2022_Sep_16_1414,Tone_Learning,2021.1.4,None,
stimuli/bu4-aN.wav,4,0,35,35,3,,,,,,,,362.58788696666693,None,4,1,1.0575302000002011,362.60546360000035,None,362.60546360000035,None,2.1,2.2,364.6050418,None,366.7218805000002,None,367.4883798999999,None,Subj_048,Run4,group_Mand,2022_Sep_16_1414,Tone_Learning,2021.1.4,None,
stimuli/ma1-iN.wav,1,0,36,36,32,,,,,,,,369.5970762666668,None,1,1,0.8967035999999098,369.6093780000001,None,369.6093780000001,None,3.1,2.3,371.6222737000003,None,374.74880269999994,None,375.5040390000004,None,Subj_048,Run4,group_Mand,2022_Sep_16_1414,Tone_Learning,2021.1.4,None,
stimuli/mi2-iN.wav,2,0,37,37,37,,,,,,,,378.6060746666669,None,3,0,1.205877700000201,378.6230779000002,None,378.6230779000002,None,3.3,1.3,380.63282690000005,None,383.9674938000003,None,384.7226058000001,None,Subj_048,Run4,group_Mand,2022_Sep_16_1414,Tone_Learning,2021.1.4,None,
stimuli/bu2-iN.wav,2,0,38,38,21,,,,,,,,388.03952876666676,None,2,1,1.3881928000000698,388.05689710000024,None,388.05689710000024,None,2.7,2.0,390.05652390000023,None,392.7863305999999,None,393.53249240000014,None,Subj_048,Run4,group_Mand,2022_Sep_16_1414,Tone_Learning,2021.1.4,None,
stimuli/di1-aN.wav,1,0,39,39,4,,,,,,,,396.24886506666667,None,1,1,0.8542245999997249,396.2607363000002,None,396.2607363000002,None,3.2,2.6,398.2832813,None,401.5029106000002,None,402.2738360000003,None,Subj_048,Run4,group_Mand,2022_Sep_16_1414,Tone_Learning,2021.1.4,None,
stimuli/mi4-aN.wav,4,0,40,40,19,,,,,,,,405.490488066667,None,4,1,1.329437400000188,405.50803050000013,None,405.50803050000013,None,2.8,1.9,407.5199297000004,None,410.34751080000024,None,411.10081489999993,None,Subj_048,Run4,group_Mand,2022_Sep_16_1414,Tone_Learning,2021.1.4,None,
stimuli/bu4-iN.wav,4,0,41,41,23,,,,,,,,413.91641176666667,None,4,1,1.0888630999997986,413.92834429999994,None,413.92834429999994,None,2.0,1.7,415.95274580000023,None,417.97484520000035,None,418.7481452000002,None,Subj_048,Run4,group_Mand,2022_Sep_16_1414,Tone_Learning,2021.1.4,None,
stimuli/lu4-iN.wav,4,0,42,42,31,,,,,,,,420.75789966666684,None,4,1,1.1286291000001256,420.77538140000024,None,420.77538140000024,None,2.6,2.1,422.7922109000001,None,425.4206828000001,None,426.19178660000034,None,Subj_048,Run4,group_Mand,2022_Sep_16_1414,Tone_Learning,2021.1.4,None,
stimuli/ma2-iN.wav,2,0,43,43,33,,,,,,,,428.80897326666695,None,2,1,1.518518700000186,428.8259373000001,None,428.8259373000001,None,2.6,2.0,430.83843760000036,None,433.45903309999994,None,434.21862050000027,None,Subj_048,Run4,group_Mand,2022_Sep_16_1414,Tone_Learning,2021.1.4,None,
stimuli/bu3-aN.wav,3,0,44,44,2,,,,,,,,436.8338068666669,None,3,1,1.2133678999998665,436.84590019999996,None,436.84590019999996,None,3.8,1.1,438.8561393,None,442.6885282000003,None,443.4593563000003,None,Subj_048,Run4,group_Mand,2022_Sep_16_1414,Tone_Learning,2021.1.4,None,
