Soundfile,CorrAns,trials.thisRepN,trials.thisTrialN,trials.thisN,trials.thisIndex,Instruc.started,Instruc.stopped,Trigger.keys,Trigger.corr,Trigger.rt,Trigger.started,Trigger.stopped,Tone.started,Tone.stopped,Response.keys,Response.corr,Response.rt,Response.started,Response.stopped,Response_screen.started,Response_screen.stopped,jitter_pre_fb,jitter_post_fb,jitter_cross_pre_fb.started,jitter_cross_pre_fb.stopped,FB_text.started,FB_text.stopped,jitter_cross_post_fb.started,jitter_cross_post_fb.stopped,participant,session,Group_ID,date,expName,psychopyVersion,frameRate,
,,,,,,18.477068399999553,None,5,1,21.420742899999823,18.477068399999553,None,,,,,,,,,,,,,,,,,,Subj_049,Run3,group_Mand,2022_Sep_15_1539,Tone_Learning,2021.1.4,60.819370726314325,
stimuli/bu4-aN.wav,4,0,0,0,3,,,,,,,,39.9429811599999,None,4,1,1.9185561999984202,39.94410339999922,None,39.94410339999922,None,2.9,2.6,41.94183519999933,None,44.844483599999876,None,45.610153899999204,None,Subj_049,Run3,group_Mand,2022_Sep_15_1539,Tone_Learning,2021.1.4,60.819370726314325,
stimuli/lu1-aN.wav,1,0,1,1,8,,,,,,,,48.525331229999026,48.82479389999935,1,1,1.6450612000007823,48.52551769999991,None,48.52551769999991,None,2.1,2.3,50.52528119999988,None,52.624817099998836,None,53.374937799999316,None,Subj_049,Run3,group_Mand,2022_Sep_15_1539,Tone_Learning,2021.1.4,60.819370726314325,
stimuli/mi4-iN.wav,4,0,2,2,39,,,,,,,,55.475330729999584,55.7761847999991,4,1,1.2408528000014485,55.4759011999995,None,55.4759011999995,None,2.8,2.7,57.47512829999869,None,60.27480789999936,None,61.02484480000021,None,Subj_049,Run3,group_Mand,2022_Sep_15_1539,Tone_Learning,2021.1.4,60.819370726314325,
stimuli/null.wav,0,0,3,3,42,,,,,,,,63.82617322999958,64.14212849999967,None,0,,63.826465299998745,None,63.826465299998745,None,3.7,1.8,65.84162800000013,None,69.5417207999999,None,70.29203199999938,None,Subj_049,Run3,group_Mand,2022_Sep_15_1539,Tone_Learning,2021.1.4,60.819370726314325,
stimuli/null.wav,0,0,4,4,44,,,,,,,,73.99344593000005,74.30947269999888,None,0,,73.99418960000003,None,73.99418960000003,None,2.5,2.6,76.0101467000004,None,78.50910429999931,None,79.2593622000004,None,Subj_049,Run3,group_Mand,2022_Sep_15_1539,Tone_Learning,2021.1.4,60.819370726314325,
stimuli/lu4-iN.wav,4,0,5,5,31,,,,,,,,81.75920362999913,82.05852400000003,4,1,1.1944425000001502,81.75869489999968,None,81.75869489999968,None,2.1,1.5,83.75784399999975,None,85.85854579999977,None,86.60886430000028,None,Subj_049,Run3,group_Mand,2022_Sep_15_1539,Tone_Learning,2021.1.4,60.819370726314325,
stimuli/mi3-iN.wav,3,0,6,6,38,,,,,,,,88.7087620299988,89.00892849999946,3,1,1.1957751999998436,88.70896729999913,None,88.70896729999913,None,3.9,1.8,90.7086290999996,None,94.60972239999865,None,95.3582905000003,None,Subj_049,Run3,group_Mand,2022_Sep_15_1539,Tone_Learning,2021.1.4,60.819370726314325,
stimuli/lu3-aN.wav,3,0,7,7,10,,,,,,,,99.25922632999918,99.55867959999887,None,0,,99.25911409999935,None,99.25911409999935,None,4.0,3.0,101.25886879999962,None,105.26103689999945,None,106.00869109999985,None,Subj_049,Run3,group_Mand,2022_Sep_15_1539,Tone_Learning,2021.1.4,60.819370726314325,
stimuli/mi1-iN.wav,1,0,8,8,36,,,,,,,,110.00872702999895,None,1,1,1.1660021999996388,110.00900779999938,None,110.00900779999938,None,3.3,1.0,112.00888929999928,None,115.30916579999939,None,116.0597560999995,None,Subj_049,Run3,group_Mand,2022_Sep_15_1539,Tone_Learning,2021.1.4,60.819370726314325,
stimuli/mi3-aN.wav,3,0,9,9,18,,,,,,,,119.3600365299988,None,3,1,1.0334533999994164,119.36060089999955,None,119.36060089999955,None,3.0,1.6,121.37636480000037,None,124.37554139999884,None,125.12525389999973,None,Subj_049,Run3,group_Mand,2022_Sep_15_1539,Tone_Learning,2021.1.4,60.819370726314325,
stimuli/ma2-aN.wav,2,0,10,10,13,,,,,,,,128.12542512999954,None,None,0,,128.12507910000022,None,128.12507910000022,None,3.2,1.4,130.1252500999999,None,133.3256980999995,None,134.07514809999884,None,Subj_049,Run3,group_Mand,2022_Sep_15_1539,Tone_Learning,2021.1.4,60.819370726314325,
stimuli/lu1-iN.wav,1,0,11,11,28,,,,,,,,137.27549372999948,137.5752706000003,1,1,1.1293994000006933,137.27523979999933,None,137.27523979999933,None,3.0,2.1,139.2754759999989,None,142.27522209999916,None,143.02529890000005,None,Subj_049,Run3,group_Mand,2022_Sep_15_1539,Tone_Learning,2021.1.4,60.819370726314325,
stimuli/null.wav,0,0,12,12,43,,,,,,,,146.02568152999976,146.32523349999974,None,0,,146.02534099999866,None,146.02534099999866,None,2.9,2.2,148.02584930000012,None,150.92542309999953,None,151.67534410000007,None,Subj_049,Run3,group_Mand,2022_Sep_15_1539,Tone_Learning,2021.1.4,60.819370726314325,
stimuli/mi2-aN.wav,2,0,13,13,17,,,,,,,,154.57568722999878,154.87544530000014,2,1,1.141354200000933,154.57530339999903,None,154.57530339999903,None,2.2,2.3,156.5754049999996,None,158.77542059999905,None,159.52550510000037,None,Subj_049,Run3,group_Mand,2022_Sep_15_1539,Tone_Learning,2021.1.4,60.819370726314325,
stimuli/di1-aN.wav,1,0,14,14,4,,,,,,,,161.72586372999996,None,1,1,0.9717565999999351,161.7259643999987,None,161.7259643999987,None,2.7,2.0,163.72674219999863,None,166.42539289999877,None,167.17626759999985,None,Subj_049,Run3,group_Mand,2022_Sep_15_1539,Tone_Learning,2021.1.4,60.819370726314325,
stimuli/ma4-iN.wav,4,0,15,15,35,,,,,,,,169.87581112999925,170.1767652999988,4,1,1.039987399999518,169.87583239999913,None,169.87583239999913,None,3.2,2.6,171.87563429999864,None,175.07676229999925,None,175.82683319999887,None,Subj_049,Run3,group_Mand,2022_Sep_15_1539,Tone_Learning,2021.1.4,60.819370726314325,
stimuli/null.wav,0,0,16,16,40,,,,,,,,179.0420600300002,179.34248969999862,None,0,,179.04211229999964,None,179.04211229999964,None,3.8,1.5,181.04236370000035,None,184.8432398999994,None,185.59333379999953,None,Subj_049,Run3,group_Mand,2022_Sep_15_1539,Tone_Learning,2021.1.4,60.819370726314325,
stimuli/ma3-aN.wav,3,0,17,17,14,,,,,,,,189.40947403000047,189.71011699999872,3,1,1.2952155000002676,189.4094372999989,None,189.4094372999989,None,3.6,1.5,191.4104484999989,None,195.02595420000034,None,195.77543789999982,None,Subj_049,Run3,group_Mand,2022_Sep_15_1539,Tone_Learning,2021.1.4,60.819370726314325,
stimuli/bu3-iN.wav,3,0,18,18,22,,,,,,,,199.37780912999898,None,2,0,1.5489170999990165,199.3768302999997,None,199.3768302999997,None,3.6,1.5,201.37575219999962,None,204.97612349999872,None,205.72648759999902,None,Subj_049,Run3,group_Mand,2022_Sep_15_1539,Tone_Learning,2021.1.4,60.819370726314325,
stimuli/bu2-iN.wav,2,0,19,19,21,,,,,,,,209.32631333000046,None,2,1,1.5157346999985748,209.32631669999864,None,209.32631669999864,None,2.5,2.3,211.32614589999866,None,213.82605259999946,None,214.57623140000032,None,Subj_049,Run3,group_Mand,2022_Sep_15_1539,Tone_Learning,2021.1.4,60.819370726314325,
stimuli/ma1-aN.wav,1,0,20,20,12,,,,,,,,217.07599812999962,None,1,1,1.0987949000009394,217.076009299999,None,217.076009299999,None,3.1,2.7,219.0758378999999,None,222.17622049999954,None,222.92593990000023,None,Subj_049,Run3,group_Mand,2022_Sep_15_1539,Tone_Learning,2021.1.4,60.819370726314325,
stimuli/bu2-aN.wav,2,0,21,21,1,,,,,,,,226.02644053000023,None,2,1,1.6875872999989951,226.026087799999,None,226.026087799999,None,3.3,2.6,228.02636019999954,None,231.32651369999985,None,232.07624459999897,None,Subj_049,Run3,group_Mand,2022_Sep_15_1539,Tone_Learning,2021.1.4,60.819370726314325,
stimuli/mi2-iN.wav,2,0,22,22,37,,,,,,,,235.37619803000035,None,2,1,1.6088859000010416,235.37574519999907,None,235.37574519999907,None,3.7,2.8,237.37614790000043,None,241.07608809999874,None,241.826185599999,None,Subj_049,Run3,group_Mand,2022_Sep_15_1539,Tone_Learning,2021.1.4,60.819370726314325,
stimuli/ma3-iN.wav,3,0,23,23,34,,,,,,,,245.52642713000006,245.82632099999864,3,1,0.9233595000005153,245.52635109999937,None,245.52635109999937,None,3.2,2.7,247.52613649999876,None,250.72589609999886,None,251.4762627,None,Subj_049,Run3,group_Mand,2022_Sep_15_1539,Tone_Learning,2021.1.4,60.819370726314325,
stimuli/ma4-aN.wav,4,0,24,24,15,,,,,,,,254.67655953000013,None,4,1,1.010247000000163,254.67647000000034,None,254.67647000000034,None,3.3,2.6,256.6762757999986,None,259.97627829999874,None,260.72640239999964,None,Subj_049,Run3,group_Mand,2022_Sep_15_1539,Tone_Learning,2021.1.4,60.819370726314325,
stimuli/bu4-iN.wav,4,0,25,25,23,,,,,,,,264.0270122299988,None,4,1,1.0529662999997527,264.02678989999913,None,264.02678989999913,None,3.9,1.4,266.0263183999996,None,269.9264106999999,None,270.6772428999993,None,Subj_049,Run3,group_Mand,2022_Sep_15_1539,Tone_Learning,2021.1.4,60.819370726314325,
stimuli/lu4-aN.wav,4,0,26,26,11,,,,,,,,274.576652829999,None,4,1,1.1752329999999347,274.5765589999992,None,274.5765589999992,None,4.0,1.2,276.5766808999997,None,280.5765004999994,None,281.3266456000001,None,Subj_049,Run3,group_Mand,2022_Sep_15_1539,Tone_Learning,2021.1.4,60.819370726314325,
stimuli/ma2-iN.wav,2,0,27,27,33,,,,,,,,285.32668283000004,None,2,1,1.5552233999987948,285.32642139999916,None,285.32642139999916,None,2.0,2.7,287.326352099999,None,289.32677220000005,None,290.0765293000004,None,Subj_049,Run3,group_Mand,2022_Sep_15_1539,Tone_Learning,2021.1.4,60.819370726314325,
stimuli/mi4-aN.wav,4,0,28,28,19,,,,,,,,292.0766861299997,None,4,1,1.041153199999826,292.07650699999976,None,292.07650699999976,None,2.1,1.0,294.0763382999994,None,296.17697789999875,None,296.9269416999996,None,Subj_049,Run3,group_Mand,2022_Sep_15_1539,Tone_Learning,2021.1.4,60.819370726314325,
stimuli/lu3-iN.wav,3,0,29,29,30,,,,,,,,299.0271719299997,None,2,0,1.4858485000004293,299.02682989999994,None,299.02682989999994,None,3.2,2.3,301.0268608999995,None,304.22666050000043,None,304.97658149999916,None,Subj_049,Run3,group_Mand,2022_Sep_15_1539,Tone_Learning,2021.1.4,60.819370726314325,
stimuli/di4-aN.wav,4,0,30,30,7,,,,,,,,308.17685863000025,308.4764233999995,4,1,1.089948099999674,308.1769153999994,None,308.1769153999994,None,3.5,1.2,310.1765362999995,None,313.6767215,None,314.4265032000003,None,Subj_049,Run3,group_Mand,2022_Sep_15_1539,Tone_Learning,2021.1.4,60.819370726314325,
stimuli/bu1-aN.wav,1,0,31,31,0,,,,,,,,317.9271673299989,None,1,1,1.5420885999992606,317.92673599999944,None,317.92673599999944,None,2.3,1.0,319.9268135000002,None,322.2267609999999,None,322.97654299999886,None,Subj_049,Run3,group_Mand,2022_Sep_15_1539,Tone_Learning,2021.1.4,60.819370726314325,
stimuli/lu2-aN.wav,2,0,32,32,9,,,,,,,,325.2766302300004,None,2,1,1.445998299999701,325.27666449999924,None,325.27666449999924,None,3.9,2.4,327.27682149999964,None,331.17691469999954,None,331.9272880999997,None,Subj_049,Run3,group_Mand,2022_Sep_15_1539,Tone_Learning,2021.1.4,60.819370726314325,
stimuli/lu2-iN.wav,2,0,33,33,29,,,,,,,,335.82709423000034,336.1269592999997,2,1,1.5007987999997567,335.8269352999996,None,335.8269352999996,None,2.1,1.4,337.827024799999,None,339.9269026000002,None,340.67717379999885,None,Subj_049,Run3,group_Mand,2022_Sep_15_1539,Tone_Learning,2021.1.4,60.819370726314325,
stimuli/di2-iN.wav,2,0,34,34,25,,,,,,,,342.7770055299987,343.07724309999867,None,0,,342.77706579999904,None,342.77706579999904,None,2.0,1.6,344.77707459999874,None,346.7770875999995,None,347.5271286999996,None,Subj_049,Run3,group_Mand,2022_Sep_15_1539,Tone_Learning,2021.1.4,60.819370726314325,
stimuli/ma1-iN.wav,1,0,35,35,32,,,,,,,,349.5273362299993,None,1,1,0.9419136000014987,349.52690769999936,None,349.52690769999936,None,2.5,2.1,351.52699570000004,None,354.02894430000015,None,354.7935895999999,None,Subj_049,Run3,group_Mand,2022_Sep_15_1539,Tone_Learning,2021.1.4,60.819370726314325,
stimuli/bu3-aN.wav,3,0,36,36,2,,,,,,,,357.2939571299992,357.593455799999,3,1,1.782357399999455,357.29389999999876,None,357.29389999999876,None,3.4,2.6,359.29417420000027,None,362.69456119999995,None,363.4440109999996,None,Subj_049,Run3,group_Mand,2022_Sep_15_1539,Tone_Learning,2021.1.4,60.819370726314325,
stimuli/di4-iN.wav,4,0,37,37,27,,,,,,,,366.8438689299999,367.1436101999989,4,1,1.2106094999999186,366.84415699999954,None,366.84415699999954,None,3.9,3.0,368.8440492999998,None,372.74359729999924,None,373.4940590999995,None,Subj_049,Run3,group_Mand,2022_Sep_15_1539,Tone_Learning,2021.1.4,60.819370726314325,
stimuli/di1-iN.wav,1,0,38,38,24,,,,,,,,377.3939526299999,377.69349729999885,1,1,1.4109511999995448,377.39382769999975,None,377.39382769999975,None,3.8,3.0,379.39365199999884,None,383.1937700999988,None,383.94375149999905,None,Subj_049,Run3,group_Mand,2022_Sep_15_1539,Tone_Learning,2021.1.4,60.819370726314325,
stimuli/bu1-iN.wav,1,0,39,39,20,,,,,,,,387.7438561300003,388.04419769999913,1,1,1.3749803000009706,387.7440009000002,None,387.7440009000002,None,3.9,1.3,389.7445102999991,None,393.6441064999999,None,394.39383610000004,None,Subj_049,Run3,group_Mand,2022_Sep_15_1539,Tone_Learning,2021.1.4,60.819370726314325,
stimuli/di2-aN.wav,2,0,40,40,5,,,,,,,,398.2941026299994,398.5937608000004,2,1,1.4549284000004263,398.293808299999,None,398.293808299999,None,4.0,1.7,400.29366519999894,None,404.29375009999967,None,405.0440815999991,None,Subj_049,Run3,group_Mand,2022_Sep_15_1539,Tone_Learning,2021.1.4,60.819370726314325,
stimuli/null.wav,0,0,41,41,41,,,,,,,,409.0439933300002,409.3443286999991,None,0,,409.0441071999994,None,409.0441071999994,None,2.5,2.8,411.04384989999926,None,413.5440190999998,None,414.2939802000001,None,Subj_049,Run3,group_Mand,2022_Sep_15_1539,Tone_Learning,2021.1.4,60.819370726314325,
stimuli/mi1-aN.wav,1,0,42,42,16,,,,,,,,416.79417362999976,417.0940047999993,1,1,1.5659769000012602,416.79401770000004,None,416.79401770000004,None,3.9,2.1,418.7946118,None,422.6941893000003,None,423.44413749999876,None,Subj_049,Run3,group_Mand,2022_Sep_15_1539,Tone_Learning,2021.1.4,60.819370726314325,
stimuli/di3-iN.wav,3,0,43,43,26,,,,,,,,427.34430282999875,427.64396560000023,3,1,1.4575741999997263,427.34420859999955,None,427.34420859999955,None,2.1,2.3,429.3440095999995,None,431.4443126999995,None,432.1944891999992,None,Subj_049,Run3,group_Mand,2022_Sep_15_1539,Tone_Learning,2021.1.4,60.819370726314325,
stimuli/di3-aN.wav,3,0,44,44,6,,,,,,,,434.29485713000014,434.5941707999991,3,1,1.4225796999999147,434.29430069999944,None,434.29430069999944,None,2.3,1.3,436.29506089999995,None,438.5942756000004,None,439.34422819999963,None,Subj_049,Run3,group_Mand,2022_Sep_15_1539,Tone_Learning,2021.1.4,60.819370726314325,
