Soundfile,CorrAns,trials.thisRepN,trials.thisTrialN,trials.thisN,trials.thisIndex,Instruc.started,Instruc.stopped,Trigger.keys,Trigger.corr,Trigger.rt,Trigger.started,Trigger.stopped,Tone.started,Tone.stopped,Response.keys,Response.corr,Response.rt,Response.started,Response.stopped,Response_screen.started,Response_screen.stopped,jitter_pre_fb,jitter_post_fb,jitter_cross_pre_fb.started,jitter_cross_pre_fb.stopped,FB_text.started,FB_text.stopped,jitter_cross_post_fb.started,jitter_cross_post_fb.stopped,participant,session,Group_ID,date,expName,psychopyVersion,frameRate,
,,,,,,19.411042254358563,None,5,1,21.53469704385452,19.411042254358563,None,,,,,,,,,,,,,,,,,,Subj_040,Run4,group_mand,2022_Mar_11_1605,Tone_Learning,2021.1.4,60.1003703002661,
stimuli/lu3-iN.wav,3,0,0,0,30,,,,,,,,41.012584187908764,41.312161385978015,2,0,1.6187573721372246,41.01163439647826,None,41.01163439647826,None,2.0,2.3,42.99593371207493,None,44.996949753209265,None,45.74637228016127,None,Subj_040,Run4,group_mand,2022_Mar_11_1605,Tone_Learning,2021.1.4,60.1003703002661,
stimuli/di1-aN.wav,1,0,1,1,4,,,,,,,,47.746262642563536,None,1,1,0.8849859838701377,47.74629583819524,None,47.74629583819524,None,2.8,1.5,49.74630079276676,None,52.56303754893088,None,53.313002601504195,None,Subj_040,Run4,group_mand,2022_Mar_11_1605,Tone_Learning,2021.1.4,60.1003703002661,
stimuli/bu4-iN.wav,4,0,2,2,23,,,,,,,,56.113020225624,None,1,0,1.4290570777297944,56.11300281384274,None,56.11300281384274,None,3.2,2.1,58.11303820364219,None,61.31466486037107,None,62.0797119836584,None,Subj_040,Run4,group_mand,2022_Mar_11_1605,Tone_Learning,2021.1.4,60.1003703002661,
stimuli/di2-iN.wav,2,0,3,3,25,,,,,,,,65.28031559207325,65.58020867948971,1,0,1.292469440023524,65.28030915113004,None,65.28030915113004,None,2.2,2.9,67.28021076748837,None,69.48018330500372,None,70.23061868800824,None,Subj_040,Run4,group_mand,2022_Mar_11_1605,Tone_Learning,2021.1.4,60.1003703002661,
stimuli/lu1-iN.wav,1,0,4,4,28,,,,,,,,72.4306394264308,72.73059656938358,1,1,1.3188886329035086,72.43060927432134,None,72.43060927432134,None,2.9,2.8,74.43064678750898,None,77.33182041941882,None,78.09737149344573,None,Subj_040,Run4,group_mand,2022_Mar_11_1605,Tone_Learning,2021.1.4,60.1003703002661,
stimuli/bu4-aN.wav,4,0,5,5,3,,,,,,,,80.99740847578637,81.2974264891941,1,0,1.233236471452983,80.99748767815663,None,80.99748767815663,None,3.9,2.6,82.99715253675868,None,86.91423954576521,None,87.6642368030557,None,Subj_040,Run4,group_mand,2022_Mar_11_1605,Tone_Learning,2021.1.4,60.1003703002661,
stimuli/di4-aN.wav,4,0,6,6,7,,,,,,,,91.56426918472194,91.86454872874538,2,0,1.3898002352007097,91.56434944878629,None,91.56434944878629,None,3.3,2.1,93.56452073541413,None,96.86436045501387,None,97.61447414474378,None,Subj_040,Run4,group_mand,2022_Mar_11_1605,Tone_Learning,2021.1.4,60.1003703002661,
stimuli/lu2-aN.wav,2,0,7,7,9,,,,,,,,100.91439639335518,101.21439175729074,1,0,1.416653307017441,100.91438995241106,None,100.91438995241106,None,2.3,1.4,102.91443666694659,None,105.21442113082458,None,105.96444882334208,None,Subj_040,Run4,group_mand,2022_Mar_11_1605,Tone_Learning,2021.1.4,60.1003703002661,
stimuli/null.wav,0,0,8,8,44,,,,,,,,108.26450130641429,108.56451790422989,None,0,,108.2646576585471,None,108.2646576585471,None,2.3,2.5,110.26446159905981,None,112.56454338488538,None,113.31458558722125,None,Subj_040,Run4,group_mand,2022_Mar_11_1605,Tone_Learning,2021.1.4,60.1003703002661,
stimuli/ma1-aN.wav,1,0,9,9,12,,,,,,,,115.61450925142476,115.91456371632512,1,1,1.115914332621287,115.61484821492058,None,115.61484821492058,None,3.4,2.0,117.61482238036706,None,121.01601353022807,None,121.7814393243666,None,Subj_040,Run4,group_mand,2022_Mar_11_1605,Tone_Learning,2021.1.4,60.1003703002661,
stimuli/ma2-aN.wav,2,0,10,10,13,,,,,,,,125.18249712546317,None,3,0,1.642704941442389,125.18236646632477,None,125.18236646632477,None,3.8,2.8,127.18248396045828,None,130.9841765129936,None,131.74914471702823,None,Subj_040,Run4,group_mand,2022_Mar_11_1605,Tone_Learning,2021.1.4,60.1003703002661,
stimuli/bu1-aN.wav,1,0,11,11,0,,,,,,,,135.54923276684843,135.84924122501116,2,0,1.3078749735013844,135.54917501069622,None,135.54917501069622,None,2.4,1.2,137.54930630685112,None,139.9492857099881,None,140.69929075303435,None,Subj_040,Run4,group_mand,2022_Mar_11_1605,Tone_Learning,2021.1.4,60.1003703002661,
stimuli/ma4-iN.wav,4,0,12,12,35,,,,,,,,143.0986654152834,None,4,1,1.2345271374288131,143.09907338888797,None,143.09907338888797,None,3.6,1.9,145.0993119161344,None,148.71609595307064,None,149.46609497985128,None,Subj_040,Run4,group_mand,2022_Mar_11_1605,Tone_Learning,2021.1.4,60.1003703002661,
stimuli/bu1-iN.wav,1,0,13,13,20,,,,,,,,153.06604239060965,153.36604695589313,1,1,1.347161189563849,153.06600834562278,None,153.06600834562278,None,2.1,2.5,155.06608903436472,None,157.16619474369463,None,157.9158618141587,None,Subj_040,Run4,group_mand,2022_Mar_11_1605,Tone_Learning,2021.1.4,60.1003703002661,
stimuli/bu2-iN.wav,2,0,14,14,21,,,,,,,,160.0161654232465,160.3161668034486,3,0,1.137804692899408,160.0161717226306,None,160.0161717226306,None,3.8,1.5,162.01624533341283,None,165.83281186464274,None,166.58307171424303,None,Subj_040,Run4,group_mand,2022_Mar_11_1605,Tone_Learning,2021.1.4,60.1003703002661,
stimuli/ma3-iN.wav,3,0,15,15,34,,,,,,,,170.38307659803507,170.68292863328452,3,1,1.4677639627798271,170.38312784246455,None,170.38312784246455,None,2.9,1.3,172.38267874591338,None,175.28397659601842,None,176.03317298215325,None,Subj_040,Run4,group_mand,2022_Mar_11_1605,Tone_Learning,2021.1.4,60.1003703002661,
stimuli/mi4-iN.wav,4,0,16,16,39,,,,,,,,178.9331742207964,None,2,0,1.6852420644572703,178.93316282528076,None,178.93316282528076,None,3.8,2.7,180.93393609239274,None,184.7337848363909,None,185.48399266298702,None,Subj_040,Run4,group_mand,2022_Mar_11_1605,Tone_Learning,2021.1.4,60.1003703002661,
stimuli/mi1-aN.wav,1,0,17,17,16,,,,,,,,189.28412601174972,189.58412279127833,1,1,0.834119871619805,189.28411992470456,None,189.28411992470456,None,3.1,1.0,191.28417937956738,None,194.40098093445386,None,195.15082141493394,None,Subj_040,Run4,group_mand,2022_Mar_11_1605,Tone_Learning,2021.1.4,60.1003703002661,
stimuli/null.wav,0,0,18,18,43,,,,,,,,198.250964354333,198.55098944570045,None,0,,198.2508857181988,None,198.2508857181988,None,3.5,2.4,200.25105629703057,None,203.75104585704003,None,204.5012961513944,None,Subj_040,Run4,group_mand,2022_Mar_11_1605,Tone_Learning,2021.1.4,60.1003703002661,
stimuli/lu4-aN.wav,4,0,19,19,11,,,,,,,,208.00108441422657,None,4,1,1.5487312226150607,208.00109849936644,None,208.00109849936644,None,3.1,2.9,210.0006207370775,None,213.1022397142201,None,213.86783608719043,None,Subj_040,Run4,group_mand,2022_Mar_11_1605,Tone_Learning,2021.1.4,60.1003703002661,
stimuli/di3-aN.wav,3,0,20,20,6,,,,,,,,216.96792027952273,None,3,1,1.5897554317143658,216.96784093559336,None,216.96784093559336,None,2.3,1.8,218.96781439324377,None,221.26789476347722,None,222.0180091610032,None,Subj_040,Run4,group_mand,2022_Mar_11_1605,Tone_Learning,2021.1.4,60.1003703002661,
stimuli/mi3-iN.wav,3,0,21,21,38,,,,,,,,224.31798909498724,None,2,0,1.1362801003515415,224.31800034894377,None,224.31800034894377,None,3.6,2.1,226.3179401862849,None,229.91848738335966,None,230.66800015429953,None,Subj_040,Run4,group_mand,2022_Mar_11_1605,Tone_Learning,2021.1.4,60.1003703002661,
stimuli/ma2-iN.wav,2,0,22,22,33,,,,,,,,234.2680056043286,None,2,1,1.7967977894113574,234.26803313759274,None,234.26803313759274,None,2.8,2.1,236.26805437147186,None,239.0692433271647,None,239.818292845634,None,Subj_040,Run4,group_mand,2022_Mar_11_1605,Tone_Learning,2021.1.4,60.1003703002661,
stimuli/mi1-iN.wav,1,0,23,23,36,,,,,,,,242.61838372663755,242.91824107035745,1,1,1.6175739372529279,242.61835499012113,None,242.61835499012113,None,3.8,2.4,244.61899731497624,None,248.4193804449419,None,249.16917067190707,None,Subj_040,Run4,group_mand,2022_Mar_11_1605,Tone_Learning,2021.1.4,60.1003703002661,
stimuli/bu3-iN.wav,3,0,24,24,22,,,,,,,,252.96911645473523,253.26962992533072,3,1,1.2312514576169633,252.96923352419026,None,252.96923352419026,None,3.1,2.1,254.9691574361227,None,258.0698828208356,None,258.81966950882133,None,Subj_040,Run4,group_mand,2022_Mar_11_1605,Tone_Learning,2021.1.4,60.1003703002661,
stimuli/ma1-iN.wav,1,0,25,25,32,,,,,,,,261.919411835694,None,2,0,1.4792104394246053,261.91994968986137,None,261.91994968986137,None,2.8,2.8,263.9198353808101,None,266.7218202530862,None,267.486424296088,None,Subj_040,Run4,group_mand,2022_Mar_11_1605,Tone_Learning,2021.1.4,60.1003703002661,
stimuli/null.wav,0,0,26,26,40,,,,,,,,270.2867912175256,270.5867207564356,None,0,,270.2867246139235,None,270.2867246139235,None,2.5,2.8,272.28650873614924,None,274.7867884925113,None,275.5367875192919,None,Subj_040,Run4,group_mand,2022_Mar_11_1605,Tone_Learning,2021.1.4,60.1003703002661,
stimuli/null.wav,0,0,27,27,42,,,,,,,,278.0369972746316,278.3368432936154,None,0,,278.03693456390783,None,278.03693456390783,None,3.3,2.9,280.03683582636813,None,283.3382461452543,None,284.0875476390934,None,Subj_040,Run4,group_mand,2022_Mar_11_1605,Tone_Learning,2021.1.4,60.1003703002661,
stimuli/lu1-aN.wav,1,0,28,28,8,,,,,,,,287.38820988840547,None,4,0,1.750108735158392,287.3883269578614,None,287.3883269578614,None,2.9,2.9,289.38765278218716,None,292.2897380553236,None,293.0544376507828,None,Subj_040,Run4,group_mand,2022_Mar_11_1605,Tone_Learning,2021.1.4,60.1003703002661,
stimuli/di3-iN.wav,3,0,29,29,26,,,,,,,,295.9547053746132,None,3,1,1.228575988800003,295.95465646591083,None,295.95465646591083,None,2.4,2.7,297.9546794692801,None,300.3567302373626,None,301.12169844139817,None,Subj_040,Run4,group_mand,2022_Mar_11_1605,Tone_Learning,2021.1.4,60.1003703002661,
stimuli/bu3-aN.wav,3,0,30,30,2,,,,,,,,303.52168216209014,303.82168566568043,None,0,,303.5217125265376,None,303.5217125265376,None,2.4,1.9,305.52171288043564,None,307.9384582009311,None,308.6884579355078,None,Subj_040,Run4,group_mand,2022_Mar_11_1605,Tone_Learning,2021.1.4,60.1003703002661,
stimuli/mi4-aN.wav,4,0,31,31,19,,,,,,,,311.0884940331029,311.3884943516109,4,1,1.4273109450386983,311.0884865304656,None,311.0884865304656,None,4.0,2.8,313.0877638707666,None,317.09009535073574,None,317.8549432294535,None,Subj_040,Run4,group_mand,2022_Mar_11_1605,Tone_Learning,2021.1.4,60.1003703002661,
stimuli/mi2-aN.wav,2,0,32,32,17,,,,,,,,321.8553478056378,322.1552734516695,1,0,1.4796821854470181,321.85571720436155,None,321.85571720436155,None,2.2,2.6,323.8553590595943,None,326.0570147359581,None,326.82179254287394,None,Subj_040,Run4,group_mand,2022_Mar_11_1605,Tone_Learning,2021.1.4,60.1003703002661,
stimuli/lu2-iN.wav,2,0,33,33,29,,,,,,,,329.0220663183604,329.32207229923597,None,0,,329.0220740333366,None,329.0220740333366,None,3.8,2.2,331.02214339734246,None,334.83881786745997,None,335.5894231215002,None,Subj_040,Run4,group_mand,2022_Mar_11_1605,Tone_Learning,2021.1.4,60.1003703002661,
stimuli/ma4-aN.wav,4,0,34,34,15,,,,,,,,339.3896920131951,339.68966755884367,4,1,1.4412361232170952,339.3899283462738,None,339.3899283462738,None,3.4,2.0,341.38968380276174,None,344.80645177272845,None,345.55588102374213,None,Subj_040,Run4,group_mand,2022_Mar_11_1605,Tone_Learning,2021.1.4,60.1003703002661,
stimuli/mi2-iN.wav,2,0,35,35,37,,,,,,,,348.9564660171222,None,2,1,1.59180485498473,348.9564910731001,None,348.9564910731001,None,2.1,1.4,350.95678763961723,None,353.0569998722426,None,353.806538477736,None,Subj_040,Run4,group_mand,2022_Mar_11_1605,Tone_Learning,2021.1.4,60.1003703002661,
stimuli/null.wav,0,0,36,36,41,,,,,,,,355.9065433969185,356.20631792850736,None,0,,355.90657942373355,None,355.90657942373355,None,2.6,1.9,357.9067567266279,None,360.507083445254,None,361.2570308029276,None,Subj_040,Run4,group_mand,2022_Mar_11_1605,Tone_Learning,2021.1.4,60.1003703002661,
stimuli/lu4-iN.wav,4,0,37,37,31,,,,,,,,363.85705005497806,364.15713035443196,4,1,1.2726925585511708,363.857706111075,None,363.857706111075,None,2.9,2.3,365.8571926050895,None,368.75717572415533,None,369.5070473476585,None,Subj_040,Run4,group_mand,2022_Mar_11_1605,Tone_Learning,2021.1.4,60.1003703002661,
stimuli/di4-iN.wav,4,0,38,38,27,,,,,,,,372.4071501550247,None,2,0,1.7047733407225678,372.40713628222375,None,372.40713628222375,None,3.6,1.6,374.4076699603952,None,378.0086620072457,None,378.7739218232259,None,Subj_040,Run4,group_mand,2022_Mar_11_1605,Tone_Learning,2021.1.4,60.1003703002661,
stimuli/ma3-aN.wav,3,0,39,39,14,,,,,,,,382.37400123793526,None,4,0,1.3866880562609367,382.373953390927,None,382.373953390927,None,2.4,1.5,384.37433241567624,None,386.7742842147695,None,387.5243175696555,None,Subj_040,Run4,group_mand,2022_Mar_11_1605,Tone_Learning,2021.1.4,60.1003703002661,
stimuli/di1-iN.wav,1,0,40,40,24,,,,,,,,389.9246452791953,None,1,1,1.0370913407177795,389.9243514730829,None,389.9243514730829,None,2.5,2.5,391.9245418702026,None,394.42588579782614,None,395.1912422279579,None,Subj_040,Run4,group_mand,2022_Mar_11_1605,Tone_Learning,2021.1.4,60.1003703002661,
stimuli/lu3-aN.wav,3,0,41,41,10,,,,,,,,397.6913274112043,397.9912962327912,2,0,1.653920676596499,397.6912926584214,None,397.6912926584214,None,2.1,2.1,399.69148588672533,None,401.8082095840532,None,402.55818879254593,None,Subj_040,Run4,group_mand,2022_Mar_11_1605,Tone_Learning,2021.1.4,60.1003703002661,
stimuli/mi3-aN.wav,3,0,42,42,18,,,,,,,,404.6581972507078,404.9581940302364,3,1,1.4299595176089497,404.6581904558666,None,404.6581904558666,None,2.8,1.8,406.65817700774323,None,409.45904497795755,None,410.20834080942814,None,Subj_040,Run4,group_mand,2022_Mar_11_1605,Tone_Learning,2021.1.4,60.1003703002661,
stimuli/bu2-aN.wav,2,0,43,43,1,,,,,,,,413.0086132401024,413.30853463935864,1,0,1.5760397611475128,413.00870128992256,None,413.00870128992256,None,3.0,2.6,415.0089759147645,None,418.009916575626,None,418.7589883896685,None,Subj_040,Run4,group_mand,2022_Mar_11_1605,Tone_Learning,2021.1.4,60.1003703002661,
stimuli/di2-aN.wav,2,0,44,44,5,,,,,,,,421.75908719798775,422.05907336057635,4,0,1.2896913407885222,421.75909102008654,None,421.75909102008654,None,3.1,1.7,423.7590768641662,None,426.85915709284154,None,427.60946684205874,None,Subj_040,Run4,group_mand,2022_Mar_11_1605,Tone_Learning,2021.1.4,60.1003703002661,
