Soundfile,CorrAns,trials.thisRepN,trials.thisTrialN,trials.thisN,trials.thisIndex,Instruc.started,Instruc.stopped,Trigger.keys,Trigger.corr,Trigger.rt,Trigger.started,Trigger.stopped,Tone.started,Tone.stopped,Response.keys,Response.corr,Response.rt,Response.started,Response.stopped,Response_screen.started,Response_screen.stopped,jitter_pre_fb,jitter_post_fb,jitter_cross_pre_fb.started,jitter_cross_pre_fb.stopped,FB_text.started,FB_text.stopped,jitter_cross_post_fb.started,jitter_cross_post_fb.stopped,participant,session,Group_ID,date,expName,psychopyVersion,frameRate,
,,,,,,20.367245299974456,None,5,1,19.41539720003493,20.367245299974456,None,,,,,,,,,,,,,,,,,,Subj_044,Run_4,group_mand,2022_Jun_28_1817,Tone_Learning,2021.1.4,60.46757154211496,
stimuli/ma1-iN.wav,1,0,0,0,32,,,,,,,,39.86081878007389,40.160028600133955,1,1,1.8277944000437856,39.858361599966884,None,39.858361599966884,None,2.7,2.6,41.83293340005912,None,44.546637300169095,None,45.315027800155804,None,Subj_044,Run_4,group_mand,2022_Jun_28_1817,Tone_Learning,2021.1.4,60.46757154211496,
stimuli/mi2-aN.wav,2,0,1,1,17,,,,,,,,48.02672097000759,48.32753400015645,2,1,1.767465100158006,48.02667180006392,None,48.02667180006392,None,2.6,1.6,50.02655680011958,None,52.62704550009221,None,53.37747319997288,None,Subj_044,Run_4,group_mand,2022_Jun_28_1817,Tone_Learning,2021.1.4,60.46757154211496,
stimuli/di1-aN.wav,1,0,2,2,4,,,,,,,,55.97744406999554,56.27767880004831,1,1,1.8577372999861836,55.979725500103086,None,55.979725500103086,None,3.5,2.2,57.993745899992064,None,61.49356400012039,None,62.2442664001137,None,Subj_044,Run_4,group_mand,2022_Jun_28_1817,Tone_Learning,2021.1.4,60.46757154211496,
stimuli/bu2-iN.wav,2,0,3,3,21,,,,,,,,65.74345076999161,None,2,1,1.8015585001558065,65.7438690001145,None,65.7438690001145,None,2.8,1.7,67.74376710015349,None,70.5437865999993,None,71.29367520008236,None,Subj_044,Run_4,group_mand,2022_Jun_28_1817,Tone_Learning,2021.1.4,60.46757154211496,
stimuli/bu2-aN.wav,2,0,4,4,1,,,,,,,,74.09401037015486,None,None,0,,74.09651229996234,None,74.09651229996234,None,3.0,1.0,76.1106922000181,None,79.11532460013404,None,79.87717180000618,None,Subj_044,Run_4,group_mand,2022_Jun_28_1817,Tone_Learning,2021.1.4,60.46757154211496,
stimuli/di1-iN.wav,1,0,5,5,24,,,,,,,,82.8766878699651,83.17656440008432,1,1,1.7859826998319477,82.87683890014887,None,82.87683890014887,None,2.7,2.1,84.87741190008819,None,87.57902720011771,None,88.34521319996566,None,Subj_044,Run_4,group_mand,2022_Jun_28_1817,Tone_Learning,2021.1.4,60.46757154211496,
stimuli/lu3-aN.wav,3,0,6,6,10,,,,,,,,91.06083956996444,91.36090099997818,3,1,1.899444199865684,91.06265470013022,None,91.06265470013022,None,3.3,1.1,93.0766376000829,None,96.3783627001103,None,97.1279205000028,None,Subj_044,Run_4,group_mand,2022_Jun_28_1817,Tone_Learning,2021.1.4,60.46757154211496,
stimuli/lu2-aN.wav,2,0,7,7,9,,,,,,,,100.42842417007778,None,2,1,1.8112015998922288,100.42935700016096,None,100.42935700016096,None,2.8,1.5,102.44419550010934,None,105.2460433000233,None,106.01170739997178,None,Subj_044,Run_4,group_mand,2022_Jun_28_1817,Tone_Learning,2021.1.4,60.46757154211496,
stimuli/null.wav,0,0,8,8,42,,,,,,,,108.81141967007424,109.12661479995586,None,0,,108.81327400007285,None,108.81327400007285,None,2.6,2.8,110.8186968001537,None,113.42927059996873,None,114.1951093999669,None,Subj_044,Run_4,group_mand,2022_Jun_28_1817,Tone_Learning,2021.1.4,60.46757154211496,
stimuli/mi1-iN.wav,1,0,9,9,36,,,,,,,,116.79416807002853,117.09456950007007,1,1,1.8896910001058131,116.79552679997869,None,116.79552679997869,None,2.6,1.5,118.81021190015599,None,121.41191030014306,None,122.1614864000585,None,Subj_044,Run_4,group_mand,2022_Jun_28_1817,Tone_Learning,2021.1.4,60.46757154211496,
stimuli/di2-aN.wav,2,0,10,10,5,,,,,,,,124.76165857010055,125.06067409995012,None,0,,124.76017899997532,None,124.76017899997532,None,3.1,1.4,126.76108200009912,None,129.86274460004643,None,130.6271112000104,None,Subj_044,Run_4,group_mand,2022_Jun_28_1817,Tone_Learning,2021.1.4,60.46757154211496,
stimuli/bu1-aN.wav,1,0,11,11,0,,,,,,,,133.72863526998555,None,1,1,1.814726599957794,133.72986820014194,None,133.72986820014194,None,2.6,1.8,135.74419410014525,None,138.35122660011984,None,139.11053270008415,None,Subj_044,Run_4,group_mand,2022_Jun_28_1817,Tone_Learning,2021.1.4,60.46757154211496,
stimuli/di4-aN.wav,4,0,12,12,7,,,,,,,,141.71184087016155,None,4,1,1.9491161999758333,141.7141279000789,None,141.7141279000789,None,2.1,1.5,143.72700019995682,None,145.82696940004826,None,146.57750450004824,None,Subj_044,Run_4,group_mand,2022_Jun_28_1817,Tone_Learning,2021.1.4,60.46757154211496,
stimuli/bu3-aN.wav,3,0,13,13,2,,,,,,,,148.6777185700601,148.97695449995808,3,1,1.8211505999788642,148.67904680012725,None,148.67904680012725,None,2.5,1.3,150.69697160017677,None,153.21125850011595,None,153.96246960014105,None,Subj_044,Run_4,group_mand,2022_Jun_28_1817,Tone_Learning,2021.1.4,60.46757154211496,
stimuli/mi4-aN.wav,4,0,14,14,19,,,,,,,,156.47788547009696,156.77751619997434,4,1,1.8024444000329822,156.4786582000088,None,156.4786582000088,None,3.7,1.9,158.4782436999958,None,162.17730540013872,None,162.92740559997037,None,Subj_044,Run_4,group_mand,2022_Jun_28_1817,Tone_Learning,2021.1.4,60.46757154211496,
stimuli/mi4-iN.wav,4,0,15,15,39,,,,,,,,166.6276032699505,166.92786810011603,None,0,,166.62869319994934,None,166.62869319994934,None,3.9,2.2,168.64475190010853,None,172.55358449998312,None,173.31121190008707,None,Subj_044,Run_4,group_mand,2022_Jun_28_1817,Tone_Learning,2021.1.4,60.46757154211496,
stimuli/lu4-aN.wav,4,0,16,16,11,,,,,,,,177.21095337003936,None,4,1,1.8704695999622345,177.21075300010853,None,177.21075300010853,None,2.2,1.9,179.21152450004593,None,181.41509800008498,None,182.17776730004698,None,Subj_044,Run_4,group_mand,2022_Jun_28_1817,Tone_Learning,2021.1.4,60.46757154211496,
stimuli/null.wav,0,0,17,17,44,,,,,,,,184.3785377699649,184.69369350001216,None,0,,184.38205850007944,None,184.38205850007944,None,3.7,2.7,186.3950108999852,None,190.0964925000444,None,190.86107160011306,None,Subj_044,Run_4,group_mand,2022_Jun_28_1817,Tone_Learning,2021.1.4,60.46757154211496,
stimuli/lu2-iN.wav,2,0,18,18,29,,,,,,,,194.5612143700244,194.86072490015067,2,1,1.8269501000177115,194.565249199979,None,194.565249199979,None,2.6,1.7,196.57697140006348,None,199.18619609996676,None,199.9442008000333,None,Subj_044,Run_4,group_mand,2022_Jun_28_1817,Tone_Learning,2021.1.4,60.46757154211496,
stimuli/mi2-iN.wav,2,0,19,19,37,,,,,,,,202.5439547701506,None,2,1,1.945456000044942,202.54478080011904,None,202.54478080011904,None,3.7,1.1,204.5459315001499,None,208.26154970005155,None,209.01427330006845,None,Subj_044,Run_4,group_mand,2022_Jun_28_1817,Tone_Learning,2021.1.4,60.46757154211496,
stimuli/ma4-aN.wav,4,0,20,20,15,,,,,,,,212.72824507004117,213.0275091000367,4,1,1.8383927999529988,212.73068900010549,None,212.73068900010549,None,2.9,2.5,214.74437330011278,None,217.6469731000252,None,218.4111901000142,None,Subj_044,Run_4,group_mand,2022_Jun_28_1817,Tone_Learning,2021.1.4,60.46757154211496,
stimuli/ma1-aN.wav,1,0,21,21,12,,,,,,,,221.3108837700682,221.61154640000314,1,1,1.8069323999807239,221.3111342000775,None,221.3111342000775,None,3.8,2.3,223.3116643000394,None,227.11227670009248,None,227.8774411000777,None,Subj_044,Run_4,group_mand,2022_Jun_28_1817,Tone_Learning,2021.1.4,60.46757154211496,
stimuli/null.wav,0,0,22,22,41,,,,,,,,231.67758077017498,231.97753409994766,None,0,,231.67777490010485,None,231.67777490010485,None,2.2,2.5,233.6792389000766,None,235.89589509996586,None,236.66165080014616,None,Subj_044,Run_4,group_mand,2022_Jun_28_1817,Tone_Learning,2021.1.4,60.46757154211496,
stimuli/lu1-iN.wav,1,0,23,23,28,,,,,,,,238.86230267009233,None,1,1,1.9316116000991315,238.86545470007695,None,238.86545470007695,None,3.2,2.5,240.87813340011053,None,244.07980250008404,None,244.84549880004488,None,Subj_044,Run_4,group_mand,2022_Jun_28_1817,Tone_Learning,2021.1.4,60.46757154211496,
stimuli/ma3-iN.wav,3,0,24,24,34,,,,,,,,248.06118527015207,None,3,1,1.9506121000740677,248.06123650004156,None,248.06123650004156,None,3.1,2.1,250.0610311999917,None,253.16126820002683,None,253.9107819001656,None,Subj_044,Run_4,group_mand,2022_Jun_28_1817,Tone_Learning,2021.1.4,60.46757154211496,
stimuli/ma4-iN.wav,4,0,25,25,35,,,,,,,,257.0112225700403,257.31203060015105,4,1,1.8313782000914216,257.0118927001022,None,257.0118927001022,None,3.3,2.1,259.0112548000179,None,262.31091360002756,None,263.0619856000412,None,Subj_044,Run_4,group_mand,2022_Jun_28_1817,Tone_Learning,2021.1.4,60.46757154211496,
stimuli/ma3-aN.wav,3,0,26,26,14,,,,,,,,266.3623790699756,None,3,1,1.8118400000967085,266.36441570008174,None,266.36441570008174,None,3.0,2.9,268.37766350014135,None,271.37819049996324,None,272.12748000002466,None,Subj_044,Run_4,group_mand,2022_Jun_28_1817,Tone_Learning,2021.1.4,60.46757154211496,
stimuli/mi3-iN.wav,3,0,27,27,38,,,,,,,,275.12783627009486,275.42768590012565,3,1,1.880941600073129,275.1281563001685,None,275.1281563001685,None,4.0,2.9,277.12835380015895,None,281.12824230012484,None,281.87872810009867,None,Subj_044,Run_4,group_mand,2022_Jun_28_1817,Tone_Learning,2021.1.4,60.46757154211496,
stimuli/bu1-iN.wav,1,0,28,28,20,,,,,,,,285.87855837012177,286.1780004000757,1,1,1.7880371999926865,285.8806341001764,None,285.8806341001764,None,2.4,1.1,287.8951549001504,None,290.2957473001443,None,291.062156900065,None,Subj_044,Run_4,group_mand,2022_Jun_28_1817,Tone_Learning,2021.1.4,60.46757154211496,
stimuli/di2-iN.wav,2,0,29,29,25,,,,,,,,293.46175837011543,None,4,0,1.7997856000438333,293.46267860010266,None,293.46267860010266,None,3.7,2.1,295.4626281999517,None,299.1671254001558,None,299.92819220013916,None,Subj_044,Run_4,group_mand,2022_Jun_28_1817,Tone_Learning,2021.1.4,60.46757154211496,
stimuli/null.wav,0,0,30,30,43,,,,,,,,303.6289033699548,303.92812780011445,None,0,,303.63258290011436,None,303.63258290011436,None,2.2,2.5,305.6462228000164,None,307.8615644001402,None,308.6114934000652,None,Subj_044,Run_4,group_mand,2022_Jun_28_1817,Tone_Learning,2021.1.4,60.46757154211496,
stimuli/mi1-aN.wav,1,0,31,31,16,,,,,,,,310.8125211699633,None,None,0,,310.81371280015446,None,310.81371280015446,None,3.1,1.6,312.82820250000805,None,315.93218440003693,None,316.69472969998606,None,Subj_044,Run_4,group_mand,2022_Jun_28_1817,Tone_Learning,2021.1.4,60.46757154211496,
stimuli/mi3-aN.wav,3,0,32,32,18,,,,,,,,319.7947197701549,320.09512350009754,3,1,1.8627414000220597,319.79488040017895,None,319.79488040017895,None,3.9,2.9,321.7946622001473,None,325.69680340006016,None,326.46216660016216,None,Subj_044,Run_4,group_mand,2022_Jun_28_1817,Tone_Learning,2021.1.4,60.46757154211496,
stimuli/null.wav,0,0,33,33,40,,,,,,,,330.3625811700011,330.6612011999823,None,0,,330.3660844999831,None,330.3660844999831,None,2.1,1.3,332.3787625001278,None,334.47887440002523,None,335.22878310014494,None,Subj_044,Run_4,group_mand,2022_Jun_28_1817,Tone_Learning,2021.1.4,60.46757154211496,
stimuli/bu3-iN.wav,3,0,34,34,22,,,,,,,,337.32865237009247,337.628427100135,3,1,1.7789464998058975,337.3308644001372,None,337.3308644001372,None,2.1,2.0,339.32833650009707,None,341.4318832999561,None,342.1951896001119,None,Subj_044,Run_4,group_mand,2022_Jun_28_1817,Tone_Learning,2021.1.4,60.46757154211496,
stimuli/ma2-aN.wav,2,0,35,35,13,,,,,,,,344.2948854701361,344.5952362001408,None,0,,344.29550390015356,None,344.29550390015356,None,2.3,1.4,346.3114307001233,None,348.6173028999474,None,349.378330900101,None,Subj_044,Run_4,group_mand,2022_Jun_28_1817,Tone_Learning,2021.1.4,60.46757154211496,
stimuli/di3-aN.wav,3,0,36,36,6,,,,,,,,351.6790355700767,351.97876389999874,3,1,1.8360119999852031,351.6808915999718,None,351.6808915999718,None,2.1,1.5,353.69513100013137,None,355.8003561999649,None,356.5626199999824,None,Subj_044,Run_4,group_mand,2022_Jun_28_1817,Tone_Learning,2021.1.4,60.46757154211496,
stimuli/lu1-aN.wav,1,0,37,37,8,,,,,,,,358.66197007016746,None,1,1,1.9477599000092596,358.66405180003494,None,358.66405180003494,None,2.0,1.8,360.67885070014745,None,362.6781900001224,None,363.4312216001563,None,Subj_044,Run_4,group_mand,2022_Jun_28_1817,Tone_Learning,2021.1.4,60.46757154211496,
stimuli/lu4-iN.wav,4,0,38,38,31,,,,,,,,365.445493870019,365.7451975001022,4,1,1.896556100109592,365.44615580001846,None,365.44615580001846,None,2.5,1.7,367.44769320008345,None,369.96141970017925,None,370.71387630002573,None,Subj_044,Run_4,group_mand,2022_Jun_28_1817,Tone_Learning,2021.1.4,60.46757154211496,
stimuli/bu4-aN.wav,4,0,39,39,3,,,,,,,,373.228275570157,373.5282765000593,None,0,,373.22851140005514,None,373.22851140005514,None,4.0,2.4,375.22822910011746,None,379.23045990010723,None,379.99557669996284,None,Subj_044,Run_4,group_mand,2022_Jun_28_1817,Tone_Learning,2021.1.4,60.46757154211496,
stimuli/lu3-iN.wav,3,0,40,40,30,,,,,,,,383.99564727006947,384.2961715001147,3,1,1.9332935998681933,383.99566390016116,None,383.99566390016116,None,3.6,2.1,385.99542050017044,None,389.6024712000508,None,390.3615709999576,None,Subj_044,Run_4,group_mand,2022_Jun_28_1817,Tone_Learning,2021.1.4,60.46757154211496,
stimuli/ma2-iN.wav,2,0,41,41,33,,,,,,,,393.96200617013966,None,2,1,1.8367696998175234,393.9625709000975,None,393.9625709000975,None,2.9,1.7,395.9619293001015,None,398.86231380002573,None,399.6124234001618,None,Subj_044,Run_4,group_mand,2022_Jun_28_1817,Tone_Learning,2021.1.4,60.46757154211496,
stimuli/di4-iN.wav,4,0,42,42,27,,,,,,,,402.5125484700082,402.812156900065,None,0,,402.5150745001156,None,402.5150745001156,None,2.5,2.3,404.5283937000204,None,407.03048580000177,None,407.7796098999679,None,Subj_044,Run_4,group_mand,2022_Jun_28_1817,Tone_Learning,2021.1.4,60.46757154211496,
stimuli/bu4-iN.wav,4,0,43,43,23,,,,,,,,410.27956527012867,410.5792125000153,4,1,1.8902904000133276,410.2782626999542,None,410.2782626999542,None,3.8,1.2,412.2789972999599,None,416.08110880013555,None,416.8454875999596,None,Subj_044,Run_4,group_mand,2022_Jun_28_1817,Tone_Learning,2021.1.4,60.46757154211496,
stimuli/di3-iN.wav,3,0,44,44,26,,,,,,,,420.6463275701506,None,3,1,1.8663244000636041,420.64626169996336,None,420.64626169996336,None,3.9,1.0,422.66177370003425,None,426.5637636000756,None,427.3287488000933,None,Subj_044,Run_4,group_mand,2022_Jun_28_1817,Tone_Learning,2021.1.4,60.46757154211496,
