Soundfile,CorrAns,trials.thisRepN,trials.thisTrialN,trials.thisN,trials.thisIndex,Instruc.started,Instruc.stopped,Trigger.keys,Trigger.corr,Trigger.rt,Trigger.started,Trigger.stopped,Tone.started,Tone.stopped,Response.keys,Response.corr,Response.rt,Response.started,Response.stopped,Response_screen.started,Response_screen.stopped,jitter_pre_fb,jitter_post_fb,jitter_cross_pre_fb.started,jitter_cross_pre_fb.stopped,FB_text.started,FB_text.stopped,jitter_cross_post_fb.started,jitter_cross_post_fb.stopped,participant,session,date,expName,psychopyVersion,frameRate
,,,,,,13.2844948,None,5,1,21.65275016,13.2844948,None,,,,,,,,,,,,,,,,,,Subj_004,Run1,2021_Oct_06_1058,Tone_Learning,2021.1.4,60.08682006
stimuli/lu2-iN.wav,2,0,0,0,29,,,,,,,,35.00077547,35.30079578,1,0,1.595978598,35.0173138,None,35.0173138,None,3.8,1.1,37.00145163,None,40.81825131,None,41.56817213,None,Subj_004,Run1,2021_Oct_06_1058,Tone_Learning,2021.1.4,60.08682006
stimuli/di3-iN.wav,3,0,1,1,26,,,,,,,,45.36834422,None,2,0,1.918223316,45.36831623,None,45.36831623,None,3.7,1.4,47.36827058,None,51.06804243,None,51.81830828,None,Subj_004,Run1,2021_Oct_06_1058,Tone_Learning,2021.1.4,60.08682006
stimuli/bu1-aN.wav,1,0,2,2,0,,,,,,,,55.51862409,55.81844984,1,1,1.280297022,55.51851223,None,55.51851223,None,2.3,2.4,57.51851152,None,59.8354915,None,60.58517804,None,Subj_004,Run1,2021_Oct_06_1058,Tone_Learning,2021.1.4,60.08682006
stimuli/bu1-iN.wav,1,0,3,3,20,,,,,,,,62.91860208,63.21862168,3,0,1.480940313,62.93537008,None,62.93537008,None,3,1.9,64.90208902,None,67.91874671,None,68.66870115,None,Subj_004,Run1,2021_Oct_06_1058,Tone_Learning,2021.1.4,60.08682006
stimuli/mi2-aN.wav,2,0,4,4,17,,,,,,,,71.6863052,71.98633475,2,1,1.943507299,71.70318825,None,71.70318825,None,3.1,2.2,73.68638263,None,76.80312699,None,77.55311717,None,Subj_004,Run1,2021_Oct_06_1058,Tone_Learning,2021.1.4,60.08682006
stimuli/bu4-iN.wav,4,0,5,5,23,,,,,,,,80.66981489,80.96986568,4,1,1.917664886,80.68655745,None,80.68655745,None,3.9,2,82.67014924,None,86.57003781,None,87.32003612,None,Subj_004,Run1,2021_Oct_06_1058,Tone_Learning,2021.1.4,60.08682006
stimuli/di2-iN.wav,2,0,6,6,25,,,,,,,,91.25334847,91.55335321,3,0,1.728150908,91.25341242,None,91.25341242,None,3,1.3,93.23653638,None,96.23750885,None,96.98685213,None,Subj_004,Run1,2021_Oct_06_1058,Tone_Learning,2021.1.4,60.08682006
stimuli/ma3-aN.wav,3,0,7,7,14,,,,,,,,100.0041384,100.3039783,1,0,1.74722068,100.0206761,None,100.0206761,None,2.3,1.6,102.0040194,None,104.3044854,None,105.0541712,None,Subj_004,Run1,2021_Oct_06_1058,Tone_Learning,2021.1.4,60.08682006
stimuli/di4-iN.wav,4,0,8,8,27,,,,,,,,107.3713972,107.6711681,None,0,,107.3879504,None,107.3879504,None,3.2,1.6,109.3712605,None,112.573216,None,113.3381755,None,Subj_004,Run1,2021_Oct_06_1058,Tone_Learning,2021.1.4,60.08682006
stimuli/null.wav,0,0,9,9,44,,,,,,,,116.5381882,116.8382122,None,0,,116.5382523,None,116.5382523,None,2.8,1.1,118.5380732,None,121.3382821,None,122.0882535,None,Subj_004,Run1,2021_Oct_06_1058,Tone_Learning,2021.1.4,60.08682006
stimuli/di3-aN.wav,3,0,10,10,6,,,,,,,,124.9220457,125.2223477,1,0,1.818949876,124.9223793,None,124.9223793,None,4,2,126.9057524,None,130.9225492,None,131.6724806,None,Subj_004,Run1,2021_Oct_06_1058,Tone_Learning,2021.1.4,60.08682006
stimuli/lu3-aN.wav,3,0,11,11,10,,,,,,,,135.6894311,135.9892016,2,0,1.789646119,135.7060179,None,135.7060179,None,3.7,1.3,137.6893015,None,141.3892941,None,142.1393201,None,Subj_004,Run1,2021_Oct_06_1058,Tone_Learning,2021.1.4,60.08682006
stimuli/null.wav,0,0,12,12,40,,,,,,,,145.8393496,146.1393732,None,0,,145.8394101,None,145.8394101,None,3.7,2.7,147.8391652,None,151.544344,None,152.2943526,None,Subj_004,Run1,2021_Oct_06_1058,Tone_Learning,2021.1.4,60.08682006
stimuli/mi2-iN.wav,2,0,13,13,37,,,,,,,,156.0111637,156.3109073,None,0,,156.0117621,None,156.0117621,None,2.7,1.6,158.0111877,None,160.7131342,None,161.4780148,None,Subj_004,Run1,2021_Oct_06_1058,Tone_Learning,2021.1.4,60.08682006
stimuli/lu4-aN.wav,4,0,14,14,11,,,,,,,,164.2111605,164.5114512,1,0,1.5755262,164.2114145,None,164.2114145,None,2,1.7,166.1948198,None,168.1968957,None,168.9616584,None,Subj_004,Run1,2021_Oct_06_1058,Tone_Learning,2021.1.4,60.08682006
stimuli/lu1-iN.wav,1,0,15,15,28,,,,,,,,170.9966159,171.2966412,3,0,1.507577905,170.9977985,None,170.9977985,None,3.3,2.2,172.9800105,None,176.2803674,None,177.0304001,None,Subj_004,Run1,2021_Oct_06_1058,Tone_Learning,2021.1.4,60.08682006
stimuli/ma1-aN.wav,1,0,16,16,12,,,,,,,,180.3304492,None,2,0,1.895081395,180.3304708,None,180.3304708,None,2.2,1.5,182.3304612,None,184.5306232,None,185.2805394,None,Subj_004,Run1,2021_Oct_06_1058,Tone_Learning,2021.1.4,60.08682006
stimuli/lu1-aN.wav,1,0,17,17,8,,,,,,,,187.4806155,None,1,1,1.591638913,187.480613,None,187.480613,None,3.6,1.1,189.4815858,None,193.0984354,None,193.8484568,None,Subj_004,Run1,2021_Oct_06_1058,Tone_Learning,2021.1.4,60.08682006
stimuli/null.wav,0,0,18,18,42,,,,,,,,197.4487188,197.7484727,None,0,,197.448465,None,197.448465,None,3.1,2.6,199.4485525,None,202.5485276,None,203.2985631,None,Subj_004,Run1,2021_Oct_06_1058,Tone_Learning,2021.1.4,60.08682006
stimuli/bu2-iN.wav,2,0,19,19,21,,,,,,,,206.4318577,None,4,0,1.838727417,206.4319914,None,206.4319914,None,3.6,1.9,208.4153117,None,212.0171117,None,212.7820581,None,Subj_004,Run1,2021_Oct_06_1058,Tone_Learning,2021.1.4,60.08682006
stimuli/mi1-iN.wav,1,0,20,20,36,,,,,,,,216.3987408,None,3,0,1.843611023,216.4155035,None,216.4155035,None,3.4,3,218.3985341,None,221.7994232,None,222.5494531,None,Subj_004,Run1,2021_Oct_06_1058,Tone_Learning,2021.1.4,60.08682006
stimuli/bu3-iN.wav,3,0,21,21,22,,,,,,,,225.9662763,226.2662659,None,0,,225.9830111,None,225.9830111,None,3.9,2.1,227.9663173,None,231.883164,None,232.633065,None,Subj_004,Run1,2021_Oct_06_1058,Tone_Learning,2021.1.4,60.08682006
stimuli/null.wav,0,0,22,22,41,,,,,,,,236.5331298,236.8331484,None,0,,236.5331521,None,236.5331521,None,3.4,1.9,238.5331758,None,241.9332277,None,242.6832327,None,Subj_004,Run1,2021_Oct_06_1058,Tone_Learning,2021.1.4,60.08682006
stimuli/lu4-iN.wav,4,0,23,23,31,,,,,,,,246.0999753,246.3999776,None,0,,246.1166736,None,246.1166736,None,3.7,2.1,248.100178,None,251.8178801,None,252.5680362,None,Subj_004,Run1,2021_Oct_06_1058,Tone_Learning,2021.1.4,60.08682006
stimuli/bu2-aN.wav,2,0,24,24,1,,,,,,,,256.267904,None,2,1,1.579931353,256.2685123,None,256.2685123,None,3,1.6,258.2684023,None,261.2690654,None,262.0346421,None,Subj_004,Run1,2021_Oct_06_1058,Tone_Learning,2021.1.4,60.08682006
stimuli/lu2-aN.wav,2,0,25,25,9,,,,,,,,265.0341778,None,2,1,1.828428672,265.0345342,None,265.0345342,None,3.6,2.2,267.0344864,None,270.6347987,None,271.3848005,None,Subj_004,Run1,2021_Oct_06_1058,Tone_Learning,2021.1.4,60.08682006
stimuli/di1-iN.wav,1,0,26,26,24,,,,,,,,275.0028531,275.3028334,3,0,1.933125391,275.0195479,None,275.0195479,None,2.4,2.1,277.0028845,None,279.4047412,None,280.1695843,None,Subj_004,Run1,2021_Oct_06_1058,Tone_Learning,2021.1.4,60.08682006
stimuli/bu4-aN.wav,4,0,27,27,3,,,,,,,,282.5862589,282.8865602,2,0,1.809129582,282.6029381,None,282.6029381,None,2.7,2.9,284.5864662,None,287.2864259,None,288.0364876,None,Subj_004,Run1,2021_Oct_06_1058,Tone_Learning,2021.1.4,60.08682006
stimuli/null.wav,0,0,28,28,43,,,,,,,,290.7364095,291.0364427,None,0,,290.7367471,None,290.7367471,None,3,2.3,292.7369874,None,295.7364951,None,296.4863632,None,Subj_004,Run1,2021_Oct_06_1058,Tone_Learning,2021.1.4,60.08682006
stimuli/mi3-aN.wav,3,0,29,29,18,,,,,,,,299.5196816,299.8198972,2,0,1.739816001,299.5199019,None,299.5199019,None,3.3,1.2,301.5035008,None,304.805647,None,305.5706164,None,Subj_004,Run1,2021_Oct_06_1058,Tone_Learning,2021.1.4,60.08682006
stimuli/ma4-aN.wav,4,0,30,30,15,,,,,,,,308.8873247,309.1873387,2,0,1.896210287,308.9046812,None,308.9046812,None,2.3,1.3,310.8873572,None,313.1874377,None,313.9374492,None,Subj_004,Run1,2021_Oct_06_1058,Tone_Learning,2021.1.4,60.08682006
stimuli/di4-aN.wav,4,0,31,31,7,,,,,,,,316.2538556,316.5539513,2,0,1.793083045,316.2705871,None,316.2705871,None,2.9,1.5,318.2544489,None,321.154535,None,321.9045591,None,Subj_004,Run1,2021_Oct_06_1058,Tone_Learning,2021.1.4,60.08682006
stimuli/ma2-iN.wav,2,0,32,32,33,,,,,,,,324.8213521,325.1213969,None,0,,324.8380908,None,324.8380908,None,3.3,1.7,326.8214833,None,330.1222158,None,330.8723047,None,Subj_004,Run1,2021_Oct_06_1058,Tone_Learning,2021.1.4,60.08682006
stimuli/di2-aN.wav,2,0,33,33,5,,,,,,,,334.1892426,334.4892548,2,1,1.491620547,334.2059997,None,334.2059997,None,3,1.1,336.1893183,None,339.2059059,None,339.955912,None,Subj_004,Run1,2021_Oct_06_1058,Tone_Learning,2021.1.4,60.08682006
stimuli/di1-aN.wav,1,0,34,34,4,,,,,,,,342.9727237,343.2727536,1,1,1.857415348,342.9894564,None,342.9894564,None,3.9,1.8,344.972816,None,348.8728493,None,349.6228809,None,Subj_004,Run1,2021_Oct_06_1058,Tone_Learning,2021.1.4,60.08682006
stimuli/mi4-iN.wav,4,0,35,35,39,,,,,,,,353.5395415,None,4,1,1.583836469,353.5563439,None,353.5563439,None,3.3,2.9,355.5401332,None,358.8403652,None,359.5901922,None,Subj_004,Run1,2021_Oct_06_1058,Tone_Learning,2021.1.4,60.08682006
stimuli/lu3-iN.wav,3,0,36,36,30,,,,,,,,362.9070343,363.2073314,3,1,1.887487035,362.9238044,None,362.9238044,None,3.3,1.4,364.907392,None,368.2074,None,368.9573838,None,Subj_004,Run1,2021_Oct_06_1058,Tone_Learning,2021.1.4,60.08682006
stimuli/ma1-iN.wav,1,0,37,37,32,,,,,,,,372.274803,372.5744713,4,0,1.849551681,372.2915594,None,372.2915594,None,3,2,374.2747785,None,377.2923348,None,378.0425854,None,Subj_004,Run1,2021_Oct_06_1058,Tone_Learning,2021.1.4,60.08682006
stimuli/mi1-aN.wav,1,0,38,38,16,,,,,,,,381.0589317,381.3590356,2,0,1.950507842,381.0756747,None,381.0756747,None,4,2.7,383.058983,None,387.0591132,None,387.8091292,None,Subj_004,Run1,2021_Oct_06_1058,Tone_Learning,2021.1.4,60.08682006
stimuli/mi4-aN.wav,4,0,39,39,19,,,,,,,,391.826154,392.1261485,2,0,1.921102166,391.8422578,None,391.8422578,None,3.5,2.4,393.8261387,None,397.3263303,None,398.0762087,None,Subj_004,Run1,2021_Oct_06_1058,Tone_Learning,2021.1.4,60.08682006
stimuli/ma3-iN.wav,3,0,40,40,34,,,,,,,,401.5930644,401.8929712,3,1,1.819913857,401.6098052,None,401.6098052,None,3.5,2.2,403.5929677,None,407.1107952,None,407.860767,None,Subj_004,Run1,2021_Oct_06_1058,Tone_Learning,2021.1.4,60.08682006
stimuli/ma4-iN.wav,4,0,41,41,35,,,,,,,,411.3775767,411.6775925,3,0,1.783900805,411.3942829,None,411.3942829,None,2.2,1.4,413.3775972,None,415.5793358,None,416.3442907,None,Subj_004,Run1,2021_Oct_06_1058,Tone_Learning,2021.1.4,60.08682006
stimuli/ma2-aN.wav,2,0,42,42,13,,,,,,,,418.5443359,None,2,1,1.884366481,418.5442994,None,418.5442994,None,3.6,2.7,420.5440609,None,424.1453227,None,424.8943474,None,Subj_004,Run1,2021_Oct_06_1058,Tone_Learning,2021.1.4,60.08682006
stimuli/mi3-iN.wav,3,0,43,43,38,,,,,,,,428.5110956,428.811134,4,0,1.836067976,428.5278516,None,428.5278516,None,2.8,2,430.5110654,None,433.3288801,None,434.0788762,None,Subj_004,Run1,2021_Oct_06_1058,Tone_Learning,2021.1.4,60.08682006
stimuli/mi3-iN.wav,,,,44,,,,,,,,,436.8955235,437.1955604,2,0,1.836065498,436.9122837,None,436.9122837,None,3.7,2.8,,,,,,,Subj_004,Run1,,,,
