Soundfile,CorrAns,trials.thisRepN,trials.thisTrialN,trials.thisN,trials.thisIndex,Instruc.started,Instruc.stopped,Trigger.keys,Trigger.corr,Trigger.rt,Trigger.started,Trigger.stopped,Tone.started,Tone.stopped,Response.keys,Response.corr,Response.started,Response.stopped,Response_screen.started,Response_screen.stopped,jitter_pre_fb,jitter_post_fb,jitter_cross_pre_fb.started,jitter_cross_pre_fb.stopped,FB_text.started,FB_text.stopped,jitter_cross_post_fb.started,jitter_cross_post_fb.stopped,Response.rt,participant,session,date,expName,psychopyVersion,frameRate,
,,,,,,12.999533567398885,None,5,1,38.36494458193238,12.999533567398885,None,,,,,,,,,,,,,,,,,,Subj_020,Run1,2021_Oct_26_1150,Tone_Learning,2021.1.4,60.000573314121745,
stimuli/bu3-iN.wav,3,0,0,0,22,,,,,,,,51.432818311053914,51.7329156673577,None,0,51.44947363541041,None,51.44947363541041,None,2.2,1.8,53.416406112036384,None,55.63304459102733,None,56.38300345082257,None,,Subj_020,Run1,2021_Oct_26_1150,Tone_Learning,2021.1.4,60.000573314121745,
stimuli/bu4-aN.wav,4,0,1,1,3,,,,,,,,58.58313258682879,None,1,0,58.583115069064206,None,58.583115069064206,None,3.1,2.6,60.58298306651477,None,63.68471739598954,None,64.44986893527016,None,0.9047182241022256,Subj_020,Run1,2021_Oct_26_1150,Tone_Learning,2021.1.4,60.000573314121745,
stimuli/mi2-iN.wav,2,0,2,2,37,,,,,,,,67.55018857254285,67.85073484368309,None,0,67.5503370311742,None,67.5503370311742,None,2.8,2.9,69.55082823637144,None,72.35234170045464,None,73.11752225906253,None,,Subj_020,Run1,2021_Oct_26_1150,Tone_Learning,2021.1.4,60.000573314121745,
stimuli/null.wav,0,0,3,3,40,,,,,,,,75.91750955425945,76.21754727938492,None,0,75.91754724399539,None,75.91754724399539,None,2.8,1.3,77.91777161294021,None,80.71769892306429,None,81.46772820781234,None,,Subj_020,Run1,2021_Oct_26_1150,Tone_Learning,2021.1.4,60.000573314121745,
stimuli/mi2-aN.wav,2,0,4,4,17,,,,,,,,84.26775372358665,84.56836865020841,1,0,84.26780026067831,None,84.26780026067831,None,3.7,2.3,86.26784874418854,None,89.9698000816079,None,90.7347410538191,None,1.8063441203835282,Subj_020,Run1,2021_Oct_26_1150,Tone_Learning,2021.1.4,60.000573314121745,
stimuli/mi1-iN.wav,1,0,5,5,36,,,,,,,,94.43478755552164,94.7348790725705,1,1,94.43490664093133,None,94.43490664093133,None,3.8,1.3,96.4348542645846,None,100.25169347238534,None,101.00167568920006,None,1.6068061646960814,Subj_020,Run1,2021_Oct_26_1150,Tone_Learning,2021.1.4,60.000573314121745,
stimuli/ma1-aN.wav,1,0,6,6,12,,,,,,,,104.8018643502165,None,None,0,104.80195901692423,None,104.80195901692423,None,3.5,2.4,106.80231184947593,None,110.31931452102344,None,111.06955012611024,None,,Subj_020,Run1,2021_Oct_26_1150,Tone_Learning,2021.1.4,60.000573314121745,
stimuli/ma1-iN.wav,1,0,7,7,32,,,,,,,,114.5693420363003,None,None,0,114.56934433661286,None,114.56934433661286,None,2.7,2.4,116.56981890878114,None,119.26984966219015,None,120.0198449730915,None,,Subj_020,Run1,2021_Oct_26_1150,Tone_Learning,2021.1.4,60.000573314121745,
stimuli/lu3-aN.wav,3,0,8,8,10,,,,,,,,122.71990421498649,None,4,0,122.72000135895382,None,122.72000135895382,None,2.4,1.3,124.71996172279955,None,127.1219264728104,None,127.88669934526024,None,1.8746602172980147,Subj_020,Run1,2021_Oct_26_1150,Tone_Learning,2021.1.4,60.000573314121745,
stimuli/bu2-aN.wav,2,0,9,9,1,,,,,,,,130.286727409073,130.5866727678033,4,0,130.2867654527031,None,130.2867654527031,None,3.3,2.6,132.2867884558284,None,135.58687236415153,None,136.33695614861153,None,1.6905407256176659,Subj_020,Run1,2021_Oct_26_1150,Tone_Learning,2021.1.4,60.000573314121745,
stimuli/ma2-iN.wav,2,0,10,10,33,,,,,,,,139.6374620758091,139.9375182034346,2,1,139.63750330448738,None,139.63750330448738,None,3.7,1.7,141.63765194006578,None,145.3379113091503,None,146.08784114961827,None,1.2763036313442626,Subj_020,Run1,2021_Oct_26_1150,Tone_Learning,2021.1.4,60.000573314121745,
stimuli/ma4-aN.wav,4,0,11,11,15,,,,,,,,149.78784872295486,None,3,0,149.78787190302728,None,149.78787190302728,None,3.9,2.4,151.78766664437126,None,155.68992848859193,None,156.4549646583523,None,0.9355753240874947,Subj_020,Run1,2021_Oct_26_1150,Tone_Learning,2021.1.4,60.000573314121745,
stimuli/lu4-aN.wav,4,0,12,12,11,,,,,,,,160.3550190872855,160.6551456398638,3,0,160.35509818264677,None,160.35509818264677,None,3.8,1.1,162.35506916331974,None,166.15518156012854,None,166.90520978319364,None,1.3493247521057583,Subj_020,Run1,2021_Oct_26_1150,Tone_Learning,2021.1.4,60.000573314121745,
stimuli/mi1-aN.wav,1,0,13,13,16,,,,,,,,170.7052076952178,171.0050122040427,None,0,170.70528714447346,None,170.70528714447346,None,2.9,2.5,172.70532359557956,None,175.62236512471395,None,176.37206918066045,None,,Subj_020,Run1,2021_Oct_26_1150,Tone_Learning,2021.1.4,60.000573314121745,
stimuli/di4-iN.wav,4,0,14,14,27,,,,,,,,179.27191127305295,179.57304996314178,1,0,179.27308814832963,None,179.27308814832963,None,2.9,2.2,181.27269072510444,None,184.18942436625503,None,184.93971765610195,None,0.8574882073594381,Subj_020,Run1,2021_Oct_26_1150,Tone_Learning,2021.1.4,60.000573314121745,
stimuli/null.wav,0,0,15,15,41,,,,,,,,187.83942668426207,188.13947502621477,None,0,187.83952205875858,None,187.83952205875858,None,2.4,2.0,189.8396002693844,None,192.2395584390856,None,192.9895763992181,None,,Subj_020,Run1,2021_Oct_26_1150,Tone_Learning,2021.1.4,60.000573314121745,
stimuli/di3-aN.wav,3,0,16,16,6,,,,,,,,195.38930754576822,None,3,1,195.3894160143509,None,195.3894160143509,None,3.2,2.1,197.38985378151892,None,200.59075175274938,None,201.35637503304497,None,1.0762450972374609,Subj_020,Run1,2021_Oct_26_1150,Tone_Learning,2021.1.4,60.000573314121745,
stimuli/di2-aN.wav,2,0,17,17,5,,,,,,,,204.55647444193536,None,None,0,204.55651142388297,None,204.55651142388297,None,2.5,1.6,206.55657158590247,None,209.07271924897987,None,209.82306526906768,None,,Subj_020,Run1,2021_Oct_26_1150,Tone_Learning,2021.1.4,60.000573314121745,
stimuli/bu1-aN.wav,1,0,18,18,0,,,,,,,,212.3233271508012,212.6231097181835,4,0,212.3233510386617,None,212.3233510386617,None,2.7,2.1,214.32339916827777,None,217.02470287924825,None,217.79014921242606,None,1.0714671711780284,Subj_020,Run1,2021_Oct_26_1150,Tone_Learning,2021.1.4,60.000573314121745,
stimuli/bu1-iN.wav,1,0,19,19,20,,,,,,,,220.49015041566653,None,1,1,220.4902065079027,None,220.4902065079027,None,2.9,2.3,222.49027304001856,None,225.39239332654552,None,226.14147912926455,None,0.7173188406563895,Subj_020,Run1,2021_Oct_26_1150,Tone_Learning,2021.1.4,60.000573314121745,
stimuli/bu3-aN.wav,3,0,20,20,2,,,,,,,,229.04152294137074,229.34155358861153,3,1,229.0416016828376,None,229.0416016828376,None,3.1,1.2,231.0415570921641,None,234.14164652123736,None,234.89140330742475,None,0.9685727764031071,Subj_020,Run1,2021_Oct_26_1150,Tone_Learning,2021.1.4,60.000573314121745,
stimuli/di2-iN.wav,2,0,21,21,25,,,,,,,,237.99158988046528,238.29176420876502,2,1,237.99177018957744,None,237.99177018957744,None,2.9,2.0,239.99176063443338,None,242.89203890146973,None,243.6418151518401,None,0.7880729149524086,Subj_020,Run1,2021_Oct_26_1150,Tone_Learning,2021.1.4,60.000573314121745,
stimuli/di4-aN.wav,4,0,22,22,7,,,,,,,,246.54184268481148,246.8419242928221,4,1,246.5418846212783,None,246.5418846212783,None,3.8,2.4,248.54194655276933,None,252.34192517755764,None,253.09207903307606,None,0.8706180373519601,Subj_020,Run1,2021_Oct_26_1150,Tone_Learning,2021.1.4,60.000573314121745,
stimuli/di1-iN.wav,1,0,23,23,24,,,,,,,,256.89208756192704,257.1921585531104,2,0,256.8921475469997,None,256.8921475469997,None,2.7,1.9,258.8921567482498,None,261.5938550512915,None,262.3590837395154,None,1.2209397095161876,Subj_020,Run1,2021_Oct_26_1150,Tone_Learning,2021.1.4,60.000573314121745,
stimuli/bu2-iN.wav,2,0,24,24,21,,,,,,,,265.05901274833207,265.3593318193739,2,1,265.05905043806797,None,265.05905043806797,None,3.2,2.8,267.0593027646569,None,270.27622754408367,None,271.0259454019051,None,1.8149055297035375,Subj_020,Run1,2021_Oct_26_1150,Tone_Learning,2021.1.4,60.000573314121745,
stimuli/mi3-iN.wav,3,0,25,25,38,,,,,,,,274.2259793403624,None,1,0,274.22606692918544,None,274.22606692918544,None,3.7,2.4,276.2260984257723,None,279.9270715995276,None,280.6762119019586,None,0.8159495176951168,Subj_020,Run1,2021_Oct_26_1150,Tone_Learning,2021.1.4,60.000573314121745,
stimuli/ma2-aN.wav,2,0,26,26,13,,,,,,,,284.37616462168864,None,4,0,284.3767632337863,None,284.3767632337863,None,2.0,2.4,286.37637041118614,None,288.3763169731569,None,289.12635545915464,None,1.3884159092449408,Subj_020,Run1,2021_Oct_26_1150,Tone_Learning,2021.1.4,60.000573314121745,
stimuli/null.wav,0,0,27,27,42,,,,,,,,291.1263050292265,291.42643972137193,None,0,291.1272596589238,None,291.1272596589238,None,3.8,2.6,293.1263954492033,None,296.9265280179834,None,297.6765176665772,None,,Subj_020,Run1,2021_Oct_26_1150,Tone_Learning,2021.1.4,60.000573314121745,
stimuli/lu2-aN.wav,2,0,28,28,9,,,,,,,,301.476633425381,301.77665133242954,3,0,301.4768017020897,None,301.4768017020897,None,2.0,1.4,303.47667359237676,None,305.47780782339805,None,306.2434176557126,None,1.2096770255047886,Subj_020,Run1,2021_Oct_26_1150,Tone_Learning,2021.1.4,60.000573314121745,
stimuli/mi4-iN.wav,4,0,29,29,39,,,,,,,,308.2437133343452,None,1,0,308.24348383393453,None,308.24348383393453,None,2.2,2.4,310.24322089051793,None,312.4437444416485,None,313.1937850510121,None,0.8526051747121528,Subj_020,Run1,2021_Oct_26_1150,Tone_Learning,2021.1.4,60.000573314121745,
stimuli/lu1-aN.wav,1,0,30,30,8,,,,,,,,315.3942050880788,None,3,0,315.3938672960321,None,315.3938672960321,None,3.8,2.4,317.3947828204168,None,321.19452398217345,None,321.94465377288407,None,0.8889465736492639,Subj_020,Run1,2021_Oct_26_1150,Tone_Learning,2021.1.4,60.000573314121745,
stimuli/lu1-iN.wav,1,0,31,31,28,,,,,,,,325.74471184692777,None,2,0,325.7448440264243,None,325.7448440264243,None,2.1,2.3,327.74476192296197,None,329.84491611468,None,330.5949337209181,None,1.076675432626871,Subj_020,Run1,2021_Oct_26_1150,Tone_Learning,2021.1.4,60.000573314121745,
stimuli/ma3-aN.wav,3,0,32,32,14,,,,,,,,332.69478374054154,None,4,0,332.69490034869204,None,332.69490034869204,None,3.4,3.0,334.69494210821176,None,338.0949586704619,None,338.8447448298707,None,1.1192308604267964,Subj_020,Run1,2021_Oct_26_1150,Tone_Learning,2021.1.4,60.000573314121745,
stimuli/null.wav,0,0,33,33,43,,,,,,,,342.2450213274361,342.5451047049178,None,0,342.24510573121097,None,342.24510573121097,None,3.7,1.3,344.2451216564514,None,347.94537642491105,None,348.6954322517263,None,,Subj_020,Run1,2021_Oct_26_1150,Tone_Learning,2021.1.4,60.000573314121745,
stimuli/di1-aN.wav,1,0,34,34,4,,,,,,,,352.39607718857917,352.6961301311567,2,0,352.3963173058173,None,352.3963173058173,None,2.7,1.3,354.3959825218717,None,357.1129807343518,None,357.8629091592429,None,1.7190118706739668,Subj_020,Run1,2021_Oct_26_1150,Tone_Learning,2021.1.4,60.000573314121745,
stimuli/lu4-iN.wav,4,0,35,35,31,,,,,,,,360.56264034118215,None,None,0,360.562724744957,None,360.562724744957,None,3.2,1.2,362.5631239376535,None,365.77976489390403,None,366.529709244036,None,,Subj_020,Run1,2021_Oct_26_1150,Tone_Learning,2021.1.4,60.000573314121745,
stimuli/ma3-iN.wav,3,0,36,36,34,,,,,,,,369.72986350653275,None,1,0,369.7298580211718,None,369.7298580211718,None,2.7,1.9,371.72983891088325,None,374.4320446982574,None,375.19688445671727,None,1.7091166339841948,Subj_020,Run1,2021_Oct_26_1150,Tone_Learning,2021.1.4,60.000573314121745,
stimuli/lu2-iN.wav,2,0,37,37,29,,,,,,,,377.8969274194775,378.1969651446029,3,0,377.8969658170017,None,377.8969658170017,None,2.7,1.6,379.89698386560804,None,382.5970662875752,None,383.3470608906882,None,1.1925304959509049,Subj_020,Run1,2021_Oct_26_1150,Tone_Learning,2021.1.4,60.000573314121745,
stimuli/mi4-aN.wav,4,0,38,38,19,,,,,,,,386.047084389265,386.34714405583327,3,0,386.04714118928996,None,386.04714118928996,None,2.7,2.0,388.0474405838122,None,390.7477268488583,None,391.4977593186545,None,1.3630229362393038,Subj_020,Run1,2021_Oct_26_1150,Tone_Learning,2021.1.4,60.000573314121745,
stimuli/di3-iN.wav,3,0,39,39,26,,,,,,,,394.19795587151214,394.4977957697606,4,0,394.1978668671122,None,394.1978668671122,None,3.4,2.4,396.1978350166314,None,399.5978912150358,None,400.34791377579313,None,1.795952723976825,Subj_020,Run1,2021_Oct_26_1150,Tone_Learning,2021.1.4,60.000573314121745,
stimuli/lu3-iN.wav,3,0,40,40,30,,,,,,,,403.74806817984756,404.0477268842478,None,0,403.74808569761217,None,403.74808569761217,None,4.0,2.4,405.74803049011143,None,409.7648309111041,None,410.51480640392856,None,,Subj_020,Run1,2021_Oct_26_1150,Tone_Learning,2021.1.4,60.000573314121745,
stimuli/ma4-iN.wav,4,0,41,41,35,,,,,,,,414.51482781452944,414.8148995135016,1,0,414.51489593916995,None,414.51489593916995,None,2.3,1.2,416.5149083254678,None,418.8317413401196,None,419.58169453760684,None,1.4011819359643596,Subj_020,Run1,2021_Oct_26_1150,Tone_Learning,2021.1.4,60.000573314121745,
stimuli/bu4-iN.wav,4,0,42,42,23,,,,,,,,421.8816887337417,422.1817767118482,2,0,421.88187081232536,None,421.88187081232536,None,3.1,2.8,423.88179260169954,None,426.98182930053144,None,427.73190246816466,None,1.5838476301296396,Subj_020,Run1,2021_Oct_26_1150,Tone_Learning,2021.1.4,60.000573314121745,
stimuli/mi3-aN.wav,3,0,43,43,18,,,,,,,,430.8318862598086,431.1319321245014,3,1,430.83276692561094,None,430.83276692561094,None,3.7,2.0,432.83202905613234,None,436.5336863074426,None,437.29892207355124,None,1.4116476501599209,Subj_020,Run1,2021_Oct_26_1150,Tone_Learning,2021.1.4,60.000573314121745,
stimuli/null.wav,0,0,44,44,44,,,,,,,,440.998941679292,441.2990077159561,None,0,440.99897689176805,None,440.99897689176805,None,3.2,1.7,442.99927027008835,None,446.1993801188587,None,446.94990343995823,None,,Subj_020,Run1,2021_Oct_26_1150,Tone_Learning,2021.1.4,60.000573314121745,
