Soundfile,CorrAns,trials.thisRepN,trials.thisTrialN,trials.thisN,trials.thisIndex,Instruc.started,Instruc.stopped,Trigger.keys,Trigger.corr,Trigger.rt,Trigger.started,Trigger.stopped,Tone.started,Tone.stopped,Response.keys,Response.corr,Response.rt,Response.started,Response.stopped,Response_screen.started,Response_screen.stopped,jitter_pre_fb,jitter_post_fb,jitter_cross_pre_fb.started,jitter_cross_pre_fb.stopped,FB_text.started,FB_text.stopped,jitter_cross_post_fb.started,jitter_cross_post_fb.stopped,participant,session,date,expName,psychopyVersion,frameRate,
,,,,,,10.847664478153092,None,5,1,24.25130978064044,10.847664478153092,None,,,,,,,,,,,,,,,,,,Subj_011,Run4,2021_Oct_13_1201,Tone_Learning,2021.1.4,59.988663214724944,
stimuli/ma3-iN.wav,3,0,0,0,34,,,,,,,,35.165210442570974,35.465252061107094,3,1,1.2322183387695986,35.165093585083014,None,35.165093585083014,None,2.1,2.0,37.14874203019099,None,39.26551210617981,None,40.01536983873484,None,Subj_011,Run4,2021_Oct_13_1201,Tone_Learning,2021.1.4,59.988663214724944,
stimuli/mi1-iN.wav,1,0,1,1,36,,,,,,,,42.115399176971735,42.4154085552982,2,0,1.8744879079749808,42.115411457270966,None,42.115411457270966,None,3.7,2.2,44.11658711014388,None,47.81839135863265,None,48.58342570100285,None,Subj_011,Run4,2021_Oct_13_1201,Tone_Learning,2021.1.4,59.988663214724944,
stimuli/ma1-aN.wav,1,0,2,2,12,,,,,,,,52.28337243918595,52.58345047394141,4,0,1.5504773391330673,52.28406208239903,None,52.28406208239903,None,3.5,2.5,54.283501152294775,None,57.78361793900331,None,58.53263409945248,None,Subj_011,Run4,2021_Oct_13_1201,Tone_Learning,2021.1.4,59.988663214724944,
stimuli/ma2-aN.wav,2,0,3,3,13,,,,,,,,62.0337440332607,62.333762259064315,2,1,1.5255182498713111,62.0337619759448,None,62.0337619759448,None,3.7,1.7,64.03382603168575,None,67.73518188998969,None,68.50084511109526,None,Subj_011,Run4,2021_Oct_13_1201,Tone_Learning,2021.1.4,59.988663214724944,
stimuli/ma4-aN.wav,4,0,4,4,15,,,,,,,,72.2007964499664,None,4,1,1.0743269546546799,72.20085615274729,None,72.20085615274729,None,3.9,2.3,74.20090251353213,None,78.10100847092872,None,78.8507034098875,None,Subj_011,Run4,2021_Oct_13_1201,Tone_Learning,2021.1.4,59.988663214724944,
stimuli/di2-aN.wav,2,0,5,5,5,,,,,,,,82.75099066980347,None,1,0,1.638549027768022,82.75108611639553,None,82.75108611639553,None,2.1,1.2,84.75102913863702,None,86.8527535474841,None,87.60251148048701,None,Subj_011,Run4,2021_Oct_13_1201,Tone_Learning,2021.1.4,59.988663214724944,
stimuli/mi3-aN.wav,3,0,6,6,18,,,,,,,,89.70247216229491,90.0024960504852,3,1,1.1971968358593585,89.70250532264254,None,89.70250532264254,None,4.0,1.3,91.70249364397023,None,95.71924758216119,None,96.46922599431491,None,Subj_011,Run4,2021_Oct_13_1201,Tone_Learning,2021.1.4,59.988663214724944,
stimuli/di3-aN.wav,3,0,7,7,6,,,,,,,,100.46928555553514,None,3,1,1.0349992072660825,100.46931446909366,None,100.46931446909366,None,2.6,2.3,102.46948575626811,None,105.0694265135553,None,105.81949375438671,None,Subj_011,Run4,2021_Oct_13_1201,Tone_Learning,2021.1.4,59.988663214724944,
stimuli/null.wav,0,0,8,8,41,,,,,,,,108.41944735821399,108.71960643586681,None,0,,108.42032810694946,None,108.42032810694946,None,3.2,2.0,110.41951343117944,None,113.61961754830008,None,114.36956694072614,None,Subj_011,Run4,2021_Oct_13_1201,Tone_Learning,2021.1.4,59.988663214724944,
stimuli/lu2-aN.wav,2,0,9,9,9,,,,,,,,117.56961029336726,None,2,1,1.452286612988246,117.56949587778217,None,117.56949587778217,None,2.4,1.2,119.56969229179413,None,121.98654015480861,None,122.73642903048494,None,Subj_011,Run4,2021_Oct_13_1201,Tone_Learning,2021.1.4,59.988663214724944,
stimuli/lu4-aN.wav,4,0,10,10,11,,,,,,,,125.13658110093657,None,4,1,0.9601753782462765,125.13651410783314,None,125.13651410783314,None,3.8,1.3,127.13648402640865,None,130.93679255565985,None,131.68798307229736,None,Subj_011,Run4,2021_Oct_13_1201,Tone_Learning,2021.1.4,59.988663214724944,
stimuli/bu2-iN.wav,2,0,11,11,21,,,,,,,,135.4879459482783,None,2,1,1.2415577365172794,135.48796990724986,None,135.48796990724986,None,3.4,2.4,137.48797804692913,None,140.88810453047336,None,141.63805993918504,None,Subj_011,Run4,2021_Oct_13_1201,Tone_Learning,2021.1.4,59.988663214724944,
stimuli/mi2-aN.wav,2,0,12,12,17,,,,,,,,145.03778520729992,None,1,0,1.424545168851182,145.0378289846194,None,145.0378289846194,None,3.2,2.5,147.03784030939278,None,150.23982893932043,None,151.00497723720764,None,Subj_011,Run4,2021_Oct_13_1201,Tone_Learning,2021.1.4,59.988663214724944,
stimuli/lu3-iN.wav,3,0,13,13,30,,,,,,,,154.20520178619898,None,3,1,1.0539101605863834,154.20496209032535,None,154.20496209032535,None,2.7,2.7,156.20501340569717,None,158.90602315066462,None,159.65502621684573,None,Subj_011,Run4,2021_Oct_13_1201,Tone_Learning,2021.1.4,59.988663214724944,
stimuli/bu1-iN.wav,1,0,14,14,20,,,,,,,,162.35509009563629,162.65506373015342,1,1,1.5055452452943427,162.35508645047594,None,162.35508645047594,None,2.4,1.2,164.35484615297355,None,166.75516515763957,None,167.50522744388581,None,Subj_011,Run4,2021_Oct_13_1201,Tone_Learning,2021.1.4,59.988663214724944,
stimuli/ma2-iN.wav,2,0,15,15,33,,,,,,,,169.9056944845526,170.20530820366366,2,1,1.5025901876506396,169.90586035706838,None,169.90586035706838,None,3.2,2.1,171.9053804698633,None,175.10639163042651,None,175.85636154900203,None,Subj_011,Run4,2021_Oct_13_1201,Tone_Learning,2021.1.4,59.988663214724944,
stimuli/di4-iN.wav,4,0,16,16,27,,,,,,,,179.05677649571788,None,4,1,1.1455541069281026,179.05678877601713,None,179.05678877601713,None,3.6,1.9,181.05829815575999,None,184.65833481970913,None,185.4083790570985,None,Subj_011,Run4,2021_Oct_13_1201,Tone_Learning,2021.1.4,59.988663214724944,
stimuli/bu4-aN.wav,4,0,17,17,3,,,,,,,,189.00836309624918,None,4,1,1.2885803124499944,189.0083976721926,None,189.0083976721926,None,3.7,1.9,191.00958288034235,None,194.70941697243506,None,195.45971460159308,None,Subj_011,Run4,2021_Oct_13_1201,Tone_Learning,2021.1.4,59.988663214724944,
stimuli/di4-aN.wav,4,0,18,18,7,,,,,,,,199.15974839895915,199.4595270350601,4,1,1.3669749835789844,199.15996204785733,None,199.15996204785733,None,3.5,2.8,201.15978191320573,None,204.66019668297304,None,205.409853754727,None,Subj_011,Run4,2021_Oct_13_1201,Tone_Learning,2021.1.4,59.988663214724944,
stimuli/bu2-aN.wav,2,0,19,19,1,,,,,,,,208.90991366984798,209.2096838123707,2,1,1.229404840772986,208.9100554772249,None,208.9100554772249,None,2.4,1.4,210.909986112998,None,213.30998554675898,None,214.06001881327575,None,Subj_011,Run4,2021_Oct_13_1201,Tone_Learning,2021.1.4,59.988663214724944,
stimuli/di3-iN.wav,3,0,20,20,26,,,,,,,,216.4600003043526,216.76003091662642,3,1,0.949753756993232,216.4600338185992,None,216.4600338185992,None,2.6,2.9,218.4600373575904,None,221.06005844997708,None,221.8101306453973,None,Subj_011,Run4,2021_Oct_13_1201,Tone_Learning,2021.1.4,59.988663214724944,
stimuli/ma4-iN.wav,4,0,21,21,35,,,,,,,,224.4101585680384,224.7101194621864,4,1,1.0958974598524946,224.4102391508677,None,224.4102391508677,None,3.0,1.4,226.4102012836629,None,229.4104911270406,None,230.16046989309325,None,Subj_011,Run4,2021_Oct_13_1201,Tone_Learning,2021.1.4,59.988663214724944,
stimuli/bu1-aN.wav,1,0,22,22,0,,,,,,,,233.16155328446638,233.46158672793354,1,1,1.4182839856403007,233.1616013085768,None,233.1616013085768,None,2.6,1.9,235.16184833016086,None,237.7620976874805,None,238.51214015537516,None,Subj_011,Run4,2021_Oct_13_1201,Tone_Learning,2021.1.4,59.988663214724944,
stimuli/mi1-aN.wav,1,0,23,23,16,,,,,,,,241.1124388108421,241.41219833638934,1,1,1.223776075286878,241.1122019461618,None,241.1122019461618,None,2.2,2.4,243.11194996998893,None,245.31223422176117,None,246.062267134379,None,Subj_011,Run4,2021_Oct_13_1201,Tone_Learning,2021.1.4,59.988663214724944,
stimuli/lu3-aN.wav,3,0,24,24,10,,,,,,,,248.26233242876714,None,3,1,0.9693360569399374,248.26215289574247,None,248.26215289574247,None,2.2,2.5,250.26204460261215,None,252.46235115003037,None,253.21259569432186,None,Subj_011,Run4,2021_Oct_13_1201,Tone_Learning,2021.1.4,59.988663214724944,
stimuli/ma3-aN.wav,3,0,25,25,14,,,,,,,,255.41254738709193,None,1,0,1.6638853734912118,255.412396519896,None,255.412396519896,None,3.0,2.3,257.4124407572872,None,260.4144208228572,None,261.17930723539575,None,Subj_011,Run4,2021_Oct_13_1201,Tone_Learning,2021.1.4,59.988663214724944,
stimuli/mi4-aN.wav,4,0,26,26,19,,,,,,,,264.1793073415649,264.47934927861206,4,1,0.9491836255128874,264.1793596124662,None,264.1793596124662,None,2.6,1.2,266.1793889860928,None,268.78111056374655,None,269.54627372539653,None,Subj_011,Run4,2021_Oct_13_1201,Tone_Learning,2021.1.4,59.988663214724944,
stimuli/bu3-iN.wav,3,0,27,27,22,,,,,,,,272.1462634269321,272.4463743743054,3,1,0.9987818792324106,272.1464827382151,None,272.1464827382151,None,2.8,1.4,274.1463008340688,None,276.94638817637133,None,277.6978490719339,None,Subj_011,Run4,2021_Oct_13_1201,Tone_Learning,2021.1.4,59.988663214724944,
stimuli/null.wav,0,0,28,28,43,,,,,,,,280.49752352013473,280.7975212197907,None,0,,280.49825103055264,None,280.49825103055264,None,2.2,2.4,282.49792190437256,None,284.6975585207583,None,285.44757480011685,None,Subj_011,Run4,2021_Oct_13_1201,Tone_Learning,2021.1.4,59.988663214724944,
stimuli/mi3-iN.wav,3,0,29,29,38,,,,,,,,287.64763797110953,287.9476370863613,3,1,0.9410174033419025,287.647722446829,None,287.647722446829,None,2.8,1.9,289.6476460046197,None,292.449174424135,None,293.2144334924451,None,Subj_011,Run4,2021_Oct_13_1201,Tone_Learning,2021.1.4,59.988663214724944,
stimuli/di1-iN.wav,1,0,30,30,24,,,,,,,,296.0144236186608,296.31450377680994,1,1,1.060179129577591,296.01520492174495,None,296.01520492174495,None,2.6,2.6,298.01462346549306,None,300.6147220617877,None,301.36459430420473,None,Subj_011,Run4,2021_Oct_13_1201,Tone_Learning,2021.1.4,59.988663214724944,
stimuli/null.wav,0,0,31,31,44,,,,,,,,303.9649881585339,304.2650396508561,None,0,,303.96521242440576,None,303.96521242440576,None,3.1,1.7,305.9650591860882,None,309.06512310026847,None,309.8151383179302,None,Subj_011,Run4,2021_Oct_13_1201,Tone_Learning,2021.1.4,59.988663214724944,
stimuli/lu1-aN.wav,1,0,32,32,8,,,,,,,,312.9151789809404,None,1,1,1.0797663841149188,312.91518524495405,None,312.91518524495405,None,3.9,2.6,314.91522381995856,None,318.8162127556552,None,319.5658638111254,None,Subj_011,Run4,2021_Oct_13_1201,Tone_Learning,2021.1.4,59.988663214724944,
stimuli/ma1-iN.wav,1,0,33,33,32,,,,,,,,323.4661910616398,None,4,0,1.3327939910759596,323.4662337772643,None,323.4662337772643,None,3.1,2.3,325.4662475793284,None,328.56839454372493,None,329.33332271635845,None,Subj_011,Run4,2021_Oct_13_1201,Tone_Learning,2021.1.4,59.988663214724944,
stimuli/null.wav,0,0,34,34,40,,,,,,,,332.4333524084943,332.73336249462045,None,0,,332.43311342042034,None,332.43311342042034,None,3.9,2.9,334.43337318237354,None,338.33346923059435,None,339.0835584131728,None,Subj_011,Run4,2021_Oct_13_1201,Tone_Learning,2021.1.4,59.988663214724944,
stimuli/bu3-aN.wav,3,0,35,35,2,,,,,,,,342.98345284506485,None,3,1,1.0968508640798973,342.98424653461916,None,342.98424653461916,None,2.5,2.8,344.9999239116878,None,347.5011278764905,None,348.25020561538804,None,Subj_011,Run4,2021_Oct_13_1201,Tone_Learning,2021.1.4,59.988663214724944,
stimuli/lu1-iN.wav,1,0,36,36,28,,,,,,,,350.75036249886597,351.05024022672114,1,1,1.671976215147879,350.7503178014085,None,350.7503178014085,None,3.5,1.1,352.7502480832809,None,356.25003751330587,None,357.0003032915447,None,Subj_011,Run4,2021_Oct_13_1201,Tone_Learning,2021.1.4,59.988663214724944,
stimuli/null.wav,0,0,37,37,42,,,,,,,,360.5003872718045,360.8003637375132,None,0,,360.5004306952269,None,360.5004306952269,None,3.4,1.9,362.5003839805431,None,365.9004386225679,None,366.65043897646683,None,Subj_011,Run4,2021_Oct_13_1201,Tone_Learning,2021.1.4,59.988663214724944,
stimuli/di2-iN.wav,2,0,38,38,25,,,,,,,,370.05100581668574,None,2,1,1.298811889879289,370.0510265905632,None,370.0510265905632,None,2.6,2.4,372.05094236257355,None,374.6532011590898,None,375.4185076498834,None,Subj_011,Run4,2021_Oct_13_1201,Tone_Learning,2021.1.4,59.988663214724944,
stimuli/di1-aN.wav,1,0,39,39,4,,,,,,,,378.01853203353147,378.3185527366295,1,1,1.2069495877785812,378.018542544336,None,378.018542544336,None,2.6,3.0,380.01857899594506,None,382.61861353649874,None,383.3686492803099,None,Subj_011,Run4,2021_Oct_13_1201,Tone_Learning,2021.1.4,59.988663214724944,
stimuli/bu4-iN.wav,4,0,40,40,23,,,,,,,,385.9686987907973,386.2686780876975,4,1,1.8882896197137597,385.96869762292954,None,385.96869762292954,None,2.6,2.9,387.9687089477011,None,390.5687364102723,None,391.31874808894463,None,Subj_011,Run4,2021_Oct_13_1201,Tone_Learning,2021.1.4,59.988663214724944,
stimuli/lu2-iN.wav,2,0,41,41,29,,,,,,,,393.9192254634656,None,2,1,1.2071438783950725,393.9188757049669,None,393.9188757049669,None,3.8,1.3,395.91880315564777,None,399.7188724490952,None,400.46886855620323,None,Subj_011,Run4,2021_Oct_13_1201,Tone_Learning,2021.1.4,59.988663214724944,
stimuli/mi2-iN.wav,2,0,42,42,37,,,,,,,,404.26870367460486,None,2,1,1.7359318022245134,404.26868693517645,None,404.26868693517645,None,2.6,2.4,406.2689452815339,None,408.869060511086,None,409.61899999433626,None,Subj_011,Run4,2021_Oct_13_1201,Tone_Learning,2021.1.4,59.988663214724944,
stimuli/lu4-iN.wav,4,0,43,43,31,,,,,,,,412.21909303441515,None,4,1,0.972242276504403,412.21910248352106,None,412.21910248352106,None,2.2,2.7,414.2191339805431,None,416.4191655483446,None,417.1691588242611,None,Subj_011,Run4,2021_Oct_13_1201,Tone_Learning,2021.1.4,59.988663214724944,
stimuli/mi4-iN.wav,4,0,44,44,39,,,,,,,,419.37060821810354,None,None,0,,419.3706491642315,None,419.3706491642315,None,2.7,1.5,421.3708158507161,None,424.07196467803624,None,424.8373185913115,None,Subj_011,Run4,2021_Oct_13_1201,Tone_Learning,2021.1.4,59.988663214724944,
