Soundfile,CorrAns,trials.thisRepN,trials.thisTrialN,trials.thisN,trials.thisIndex,Instruc.started,Instruc.stopped,Trigger.keys,Trigger.corr,Trigger.rt,Trigger.started,Trigger.stopped,Tone.started,Tone.stopped,Response.keys,Response.corr,Response.started,Response.stopped,Response_screen.started,Response_screen.stopped,jitter_pre_fb,jitter_post_fb,jitter_cross_pre_fb.started,jitter_cross_pre_fb.stopped,FB_text.started,FB_text.stopped,jitter_cross_post_fb.started,jitter_cross_post_fb.stopped,Response.rt,participant,session,date,expName,psychopyVersion,frameRate
,,,,,,13.34661127,None,5,1,21.12393512,13.34661127,None,,,,,,,,,,,,,,,,,,Subj_010,Run2,2021_Oct_15_1010,Tone_Learning,2021.1.4,60.00114666
stimuli/null.wav,0,0,0,0,40,,,,,,,,34.54635031,34.84632922,None,0,34.54639547,None,34.54639547,None,2.6,3,36.51228384,None,39.11309519,None,39.8626744,None,,Subj_010,Run2,2021_Oct_15_1010,Tone_Learning,2021.1.4,60.00114666
stimuli/null.wav,0,0,1,1,41,,,,,,,,42.46316834,42.76341879,None,0,42.46327907,None,42.46327907,None,3.9,1.7,44.46345532,None,48.36402063,None,49.11393747,None,,Subj_010,Run2,2021_Oct_15_1010,Tone_Learning,2021.1.4,60.00114666
stimuli/di4-iN.wav,4,0,2,2,27,,,,,,,,53.01416343,53.31418067,3,0,53.01502125,None,53.01502125,None,3.2,2.4,55.01419065,None,58.23116301,None,58.98066932,None,1.736667205,Subj_010,Run2,2021_Oct_15_1010,Tone_Learning,2021.1.4,60.00114666
stimuli/di2-aN.wav,2,0,3,3,5,,,,,,,,62.18093096,62.48134385,1,0,62.18113406,None,62.18113406,None,3.8,2.3,64.18134923,None,67.98162237,None,68.73138101,None,1.418861549,Subj_010,Run2,2021_Oct_15_1010,Tone_Learning,2021.1.4,60.00114666
stimuli/null.wav,0,0,4,4,44,,,,,,,,72.53156005,72.8315741,None,0,72.5317306,None,72.5317306,None,3.5,2,74.53164035,None,78.03173413,None,78.78172564,None,,Subj_010,Run2,2021_Oct_15_1010,Tone_Learning,2021.1.4,60.00114666
stimuli/di1-aN.wav,1,0,5,5,4,,,,,,,,82.28181981,82.58176768,2,0,82.28191852,None,82.28191852,None,3.8,2.3,84.28182792,None,88.08377783,None,88.84875696,None,1.436007254,Subj_010,Run2,2021_Oct_15_1010,Tone_Learning,2021.1.4,60.00114666
stimuli/ma2-iN.wav,2,0,6,6,33,,,,,,,,92.64908889,None,1,0,92.64885634,None,92.64885634,None,2.6,2.9,94.64885811,None,97.24889088,None,97.99890681,None,1.635835329,Subj_010,Run2,2021_Oct_15_1010,Tone_Learning,2021.1.4,60.00114666
stimuli/di3-aN.wav,3,0,7,7,6,,,,,,,,100.5987528,None,3,1,100.5988773,None,100.5988773,None,3.1,2.4,102.5994665,None,105.7161138,None,106.4662076,None,1.140802303,Subj_010,Run2,2021_Oct_15_1010,Tone_Learning,2021.1.4,60.00114666
stimuli/bu2-iN.wav,2,0,8,8,21,,,,,,,,109.5663091,109.8660895,3,0,109.5654512,None,109.5654512,None,3.6,2,111.5663508,None,115.169098,None,115.9339953,None,1.822826422,Subj_010,Run2,2021_Oct_15_1010,Tone_Learning,2021.1.4,60.00114666
stimuli/mi4-iN.wav,4,0,9,9,39,,,,,,,,119.5339662,119.8340231,2,0,119.5340359,None,119.5340359,None,3.6,2,121.534032,None,125.1341242,None,125.8841433,None,1.766354386,Subj_010,Run2,2021_Oct_15_1010,Tone_Learning,2021.1.4,60.00114666
stimuli/lu2-iN.wav,2,0,10,10,29,,,,,,,,129.4840898,129.7841396,1,0,129.4841662,None,129.4841662,None,3.4,2.7,131.4840232,None,134.884253,None,135.6352723,None,1.13660329,Subj_010,Run2,2021_Oct_15_1010,Tone_Learning,2021.1.4,60.00114666
stimuli/mi1-aN.wav,1,0,11,11,16,,,,,,,,139.0352834,139.335541,2,0,139.0352692,None,139.0352692,None,2.6,1.3,141.0355594,None,143.6355908,None,144.3856099,None,1.344410376,Subj_010,Run2,2021_Oct_15_1010,Tone_Learning,2021.1.4,60.00114666
stimuli/di2-iN.wav,2,0,12,12,25,,,,,,,,146.9857807,147.2856568,3,0,146.9856466,None,146.9856466,None,3.8,2.5,148.985671,None,152.785689,None,153.5357474,None,1.278802788,Subj_010,Run2,2021_Oct_15_1010,Tone_Learning,2021.1.4,60.00114666
stimuli/ma3-aN.wav,3,0,13,13,14,,,,,,,,157.3358623,157.635835,None,0,157.3358552,None,157.3358552,None,3.9,1.2,159.3360318,None,163.2526794,None,164.0026231,None,,Subj_010,Run2,2021_Oct_15_1010,Tone_Learning,2021.1.4,60.00114666
stimuli/ma1-aN.wav,1,0,14,14,12,,,,,,,,167.9023773,168.2027067,2,0,167.902723,None,167.902723,None,3.9,2.1,169.9027262,None,173.8198646,None,174.5694382,None,1.787098183,Subj_010,Run2,2021_Oct_15_1010,Tone_Learning,2021.1.4,60.00114666
stimuli/bu3-iN.wav,3,0,15,15,22,,,,,,,,178.4692742,178.7695575,3,1,178.469593,None,178.469593,None,3.8,2.6,180.4695364,None,184.272084,None,185.037015,None,0.983293484,Subj_010,Run2,2021_Oct_15_1010,Tone_Learning,2021.1.4,60.00114666
stimuli/ma4-aN.wav,4,0,16,16,15,,,,,,,,188.8373519,None,4,1,188.8374467,None,188.8374467,None,3.7,1.3,190.8373586,None,194.5371693,None,195.2874149,None,0.952885056,Subj_010,Run2,2021_Oct_15_1010,Tone_Learning,2021.1.4,60.00114666
stimuli/bu1-aN.wav,1,0,17,17,0,,,,,,,,198.9874327,199.2872408,None,0,198.9874883,None,198.9874883,None,3.6,3,200.9875732,None,204.5893631,None,205.3544201,None,,Subj_010,Run2,2021_Oct_15_1010,Tone_Learning,2021.1.4,60.00114666
stimuli/bu1-iN.wav,1,0,18,18,20,,,,,,,,208.954466,209.2545349,2,0,208.9545123,None,208.9545123,None,2.6,1.3,210.9546043,None,213.5567913,None,214.321614,None,1.457532106,Subj_010,Run2,2021_Oct_15_1010,Tone_Learning,2021.1.4,60.00114666
stimuli/bu2-aN.wav,2,0,19,19,1,,,,,,,,216.9215898,217.2216297,2,1,216.9216584,None,216.9216584,None,3,3,218.9216297,None,221.9236385,None,222.6886541,None,1.436923144,Subj_010,Run2,2021_Oct_15_1010,Tone_Learning,2021.1.4,60.00114666
stimuli/lu2-aN.wav,2,0,20,20,9,,,,,,,,225.6885858,None,2,1,225.6886445,None,225.6886445,None,2.4,1.7,227.6896294,None,230.0896724,None,230.8396593,None,1.170704656,Subj_010,Run2,2021_Oct_15_1010,Tone_Learning,2021.1.4,60.00114666
stimuli/ma4-iN.wav,4,0,21,21,35,,,,,,,,233.2394482,233.5397135,4,1,233.2400862,None,233.2400862,None,2.9,1.3,235.2397564,None,238.1399855,None,238.8900166,None,1.336070743,Subj_010,Run2,2021_Oct_15_1010,Tone_Learning,2021.1.4,60.00114666
stimuli/ma3-iN.wav,3,0,22,22,34,,,,,,,,241.790077,242.0901179,3,1,241.7899527,None,241.7899527,None,2.6,2.5,243.7901049,None,246.3900297,None,247.1402184,None,1.224388321,Subj_010,Run2,2021_Oct_15_1010,Tone_Learning,2021.1.4,60.00114666
stimuli/bu4-iN.wav,4,0,23,23,23,,,,,,,,249.7401758,250.0401658,2,0,249.7402094,None,249.7402094,None,3.9,2.4,251.7402175,None,255.6409106,None,256.3906901,None,1.650593984,Subj_010,Run2,2021_Oct_15_1010,Tone_Learning,2021.1.4,60.00114666
stimuli/null.wav,0,0,24,24,43,,,,,,,,260.2902964,260.5903306,None,0,260.2903456,None,260.2903456,None,3.3,1.2,262.2900762,None,265.5904131,None,266.3403699,None,,Subj_010,Run2,2021_Oct_15_1010,Tone_Learning,2021.1.4,60.00114666
stimuli/mi2-iN.wav,2,0,25,25,37,,,,,,,,269.6404838,269.9402682,None,0,269.6405273,None,269.6405273,None,2.7,1.7,271.6405709,None,274.3410494,None,275.0905879,None,,Subj_010,Run2,2021_Oct_15_1010,Tone_Learning,2021.1.4,60.00114666
stimuli/mi3-iN.wav,3,0,26,26,38,,,,,,,,277.7906103,278.0906406,3,1,277.7906414,None,277.7906414,None,2.8,1.9,279.7906577,None,282.6078416,None,283.3578132,None,1.027555647,Subj_010,Run2,2021_Oct_15_1010,Tone_Learning,2021.1.4,60.00114666
stimuli/bu4-aN.wav,4,0,27,27,3,,,,,,,,286.1575987,None,4,1,286.1583649,None,286.1583649,None,2.6,2,288.1577219,None,290.7581443,None,291.5079479,None,1.007928402,Subj_010,Run2,2021_Oct_15_1010,Tone_Learning,2021.1.4,60.00114666
stimuli/mi2-aN.wav,2,0,28,28,17,,,,,,,,294.1078904,None,2,1,294.1079693,None,294.1079693,None,2.7,2.1,296.1081307,None,298.80821,None,299.5582621,None,1.20565644,Subj_010,Run2,2021_Oct_15_1010,Tone_Learning,2021.1.4,60.00114666
stimuli/mi3-aN.wav,3,0,29,29,18,,,,,,,,302.2581574,302.5582444,3,1,302.258351,None,302.258351,None,3.5,1.1,304.2582144,None,307.7583053,None,308.5083421,None,1.357354944,Subj_010,Run2,2021_Oct_15_1010,Tone_Learning,2021.1.4,60.00114666
stimuli/null.wav,0,0,30,30,42,,,,,,,,312.0083,312.3084086,None,0,312.0083892,None,312.0083892,None,3,2,314.0083474,None,317.0084094,None,317.7584819,None,,Subj_010,Run2,2021_Oct_15_1010,Tone_Learning,2021.1.4,60.00114666
stimuli/lu3-aN.wav,3,0,31,31,10,,,,,,,,320.758506,321.0585827,3,1,320.7586284,None,320.7586284,None,3.8,1.2,322.7586178,None,326.5592962,None,327.3085799,None,1.17237152,Subj_010,Run2,2021_Oct_15_1010,Tone_Learning,2021.1.4,60.00114666
stimuli/lu3-iN.wav,3,0,32,32,30,,,,,,,,331.1089312,331.4089849,3,1,331.1089836,None,331.1089836,None,4,1.6,333.1090632,None,337.1091616,None,337.8591966,None,0.985766177,Subj_010,Run2,2021_Oct_15_1010,Tone_Learning,2021.1.4,60.00114666
stimuli/ma2-aN.wav,2,0,33,33,13,,,,,,,,341.8591638,342.1592033,3,0,341.8592065,None,341.8592065,None,4,2,343.859805,None,347.8765925,None,348.6265989,None,1.398218967,Subj_010,Run2,2021_Oct_15_1010,Tone_Learning,2021.1.4,60.00114666
stimuli/mi4-aN.wav,4,0,34,34,19,,,,,,,,352.6264885,352.9268947,4,1,352.6275944,None,352.6275944,None,2.3,1.9,354.6268838,None,356.9284851,None,357.6934869,None,1.276710182,Subj_010,Run2,2021_Oct_15_1010,Tone_Learning,2021.1.4,60.00114666
stimuli/lu1-iN.wav,1,0,35,35,28,,,,,,,,359.9936493,None,2,0,359.9942782,None,359.9942782,None,3.9,1.1,361.9936659,None,365.8940677,None,366.6435054,None,1.356036316,Subj_010,Run2,2021_Oct_15_1010,Tone_Learning,2021.1.4,60.00114666
stimuli/di3-iN.wav,3,0,36,36,26,,,,,,,,370.5437936,None,3,1,370.5444193,None,370.5444193,None,2.3,1.6,372.5439171,None,374.8451203,None,375.610522,None,0.968192609,Subj_010,Run2,2021_Oct_15_1010,Tone_Learning,2021.1.4,60.00114666
stimuli/di1-iN.wav,1,0,37,37,24,,,,,,,,377.9105825,None,1,1,377.9105584,None,377.9105584,None,3.5,1.7,379.9105538,None,383.4106564,None,384.1607367,None,1.357240988,Subj_010,Run2,2021_Oct_15_1010,Tone_Learning,2021.1.4,60.00114666
stimuli/bu3-aN.wav,3,0,38,38,2,,,,,,,,387.6605372,None,3,1,387.6607389,None,387.6607389,None,2.5,2.6,389.6607548,None,392.160896,None,392.9108854,None,0.915932326,Subj_010,Run2,2021_Oct_15_1010,Tone_Learning,2021.1.4,60.00114666
stimuli/di4-aN.wav,4,0,39,39,7,,,,,,,,395.4109505,None,4,1,395.4109576,None,395.4109576,None,3,2.2,397.4113861,None,400.4114774,None,401.1615259,None,1.314103871,Subj_010,Run2,2021_Oct_15_1010,Tone_Learning,2021.1.4,60.00114666
stimuli/lu4-iN.wav,4,0,40,40,31,,,,,,,,404.1619705,None,4,1,404.1620932,None,404.1620932,None,2.9,1.1,406.1623013,None,409.0622314,None,409.8121981,None,1.296745827,Subj_010,Run2,2021_Oct_15_1010,Tone_Learning,2021.1.4,60.00114666
stimuli/ma1-iN.wav,1,0,41,41,32,,,,,,,,412.7121516,None,1,1,412.712279,None,412.712279,None,2.5,2.2,414.7122595,None,417.2125752,None,417.962354,None,1.330354211,Subj_010,Run2,2021_Oct_15_1010,Tone_Learning,2021.1.4,60.00114666
stimuli/lu4-aN.wav,4,0,42,42,11,,,,,,,,420.4622719,None,4,1,420.4624081,None,420.4624081,None,2.8,2.3,422.462406,None,425.2625043,None,426.012493,None,1.14939462,Subj_010,Run2,2021_Oct_15_1010,Tone_Learning,2021.1.4,60.00114666
stimuli/mi1-iN.wav,1,0,43,43,36,,,,,,,,428.8124508,None,1,1,428.8127743,None,428.8127743,None,3.2,2.7,430.812581,None,434.01259,None,434.7623486,None,1.072717775,Subj_010,Run2,2021_Oct_15_1010,Tone_Learning,2021.1.4,60.00114666
stimuli/mi1-iN.wav,,,,44,,,,,,,,,437.9626531,None,None,0,437.9627588,None,437.9627588,None,3.5,3,439.9627634,None,443.4794431,None,,,,Subj_010,Run2,,,,
