Soundfile,CorrAns,trials.thisRepN,trials.thisTrialN,trials.thisN,trials.thisIndex,Instruc.started,Instruc.stopped,Trigger.keys,Trigger.corr,Trigger.rt,Trigger.started,Trigger.stopped,Tone.started,Tone.stopped,Response.keys,Response.corr,Response.rt,Response.started,Response.stopped,Response_screen.started,Response_screen.stopped,jitter_pre_fb,jitter_post_fb,jitter_cross_pre_fb.started,jitter_cross_pre_fb.stopped,FB_text.started,FB_text.stopped,jitter_cross_post_fb.started,jitter_cross_post_fb.stopped,participant,session,Group_ID,date,expName,psychopyVersion,frameRate,
,,,,,,15.386793899999248,None,5,1,21.896569700000327,15.386793899999248,None,,,,,,,,,,,,,,,,,,Subj_049,Run1,group_Mand,2022_Sep_15_1523,Tone_Learning,2021.1.4,59.89548238272296,
stimuli/mi3-aN.wav,3,0,0,0,18,,,,,,,,37.34349162000035,37.64286179999908,2,0,1.533879500000694,37.34174299999904,None,37.34174299999904,None,2.6,3.0,39.3266636999997,None,41.92626729999938,None,42.67700839999998,None,Subj_049,Run1,group_Mand,2022_Sep_15_1523,Tone_Learning,2021.1.4,59.89548238272296,
stimuli/lu1-iN.wav,1,0,1,1,28,,,,,,,,45.277812039999844,None,1,1,1.9593100000001868,45.27908899999966,None,45.27908899999966,None,3.1,1.1,47.29326129999936,None,50.39554979999957,None,51.160173599999325,None,Subj_049,Run1,group_Mand,2022_Sep_15_1523,Tone_Learning,2021.1.4,59.89548238272296,
stimuli/lu2-iN.wav,2,0,2,2,29,,,,,,,,54.26004144000035,None,2,1,1.3251056999997672,54.26017409999986,None,54.26017409999986,None,3.6,1.1,56.260072499999296,None,59.86033440000028,None,60.6104677000003,None,Subj_049,Run1,group_Mand,2022_Sep_15_1523,Tone_Learning,2021.1.4,59.89548238272296,
stimuli/di3-aN.wav,3,0,3,3,6,,,,,,,,64.20997723999972,64.5107580999993,None,0,,64.21057549999932,None,64.21057549999932,None,3.9,1.6,66.21075770000061,None,70.11253509999915,None,70.87622550000015,None,Subj_049,Run1,group_Mand,2022_Sep_15_1523,Tone_Learning,2021.1.4,59.89548238272296,
stimuli/null.wav,0,0,4,4,42,,,,,,,,74.77707913999984,75.07677250000052,None,0,,74.77724300000045,None,74.77724300000045,None,2.8,1.6,76.77739719999954,None,79.57730090000041,None,80.32731909999893,None,Subj_049,Run1,group_Mand,2022_Sep_15_1523,Tone_Learning,2021.1.4,59.89548238272296,
stimuli/di4-aN.wav,4,0,5,5,7,,,,,,,,83.12724944000001,None,4,1,1.181688699998631,83.12813409999944,None,83.12813409999944,None,3.8,2.3,85.14369160000024,None,88.94649070000014,None,89.7098406999994,None,Subj_049,Run1,group_Mand,2022_Sep_15_1523,Tone_Learning,2021.1.4,59.89548238272296,
stimuli/bu4-iN.wav,4,0,6,6,23,,,,,,,,93.51030193999941,None,None,0,,93.51104420000047,None,93.51104420000047,None,3.7,2.4,95.52739549999933,None,99.24039859999903,None,99.9944446999998,None,Subj_049,Run1,group_Mand,2022_Sep_15_1523,Tone_Learning,2021.1.4,59.89548238272296,
stimuli/ma3-iN.wav,3,0,7,7,34,,,,,,,,103.69352953999987,103.99441839999963,None,0,,103.69348270000046,None,103.69348270000046,None,2.9,2.8,105.69422850000046,None,108.59371619999911,None,109.34427320000032,None,Subj_049,Run1,group_Mand,2022_Sep_15_1523,Tone_Learning,2021.1.4,59.89548238272296,
stimuli/di2-aN.wav,2,0,8,8,5,,,,,,,,112.24405583999942,112.54394169999978,None,0,,112.24440359999971,None,112.24440359999971,None,2.2,2.5,114.26047730000028,None,116.46076919999905,None,117.21173529999942,None,Subj_049,Run1,group_Mand,2022_Sep_15_1523,Tone_Learning,2021.1.4,59.89548238272296,
stimuli/ma2-aN.wav,2,0,9,9,13,,,,,,,,119.42809264000061,119.72783030000028,3,0,1.3904892999998992,119.43020140000044,None,119.43020140000044,None,3.5,2.3,121.44371320000027,None,124.94600480000008,None,125.71064079999996,None,Subj_049,Run1,group_Mand,2022_Sep_15_1523,Tone_Learning,2021.1.4,59.89548238272296,
stimuli/null.wav,0,0,10,10,40,,,,,,,,129.21087764000004,129.51105429999916,None,0,,129.21278560000064,None,129.21278560000064,None,3.7,1.7,131.22725290000017,None,134.92760780000026,None,135.67789509999966,None,Subj_049,Run1,group_Mand,2022_Sep_15_1523,Tone_Learning,2021.1.4,59.89548238272296,
stimuli/di2-iN.wav,2,0,11,11,25,,,,,,,,139.37858563999907,None,2,1,1.620528399998875,139.37694270000065,None,139.37694270000065,None,2.8,2.7,141.37709799999902,None,144.17748810000012,None,144.92796309999903,None,Subj_049,Run1,group_Mand,2022_Sep_15_1523,Tone_Learning,2021.1.4,59.89548238272296,
stimuli/di1-iN.wav,1,0,12,12,24,,,,,,,,147.72720044000016,148.02732280000055,1,1,1.709704499999134,147.7273630999989,None,147.7273630999989,None,2.6,1.3,149.72845860000052,None,152.32756829999926,None,153.0776920999997,None,Subj_049,Run1,group_Mand,2022_Sep_15_1523,Tone_Learning,2021.1.4,59.89548238272296,
stimuli/null.wav,0,0,13,13,43,,,,,,,,155.6780440399998,155.97726300000068,None,0,,155.67872849999912,None,155.67872849999912,None,2.9,2.1,157.69453950000025,None,160.5943974999991,None,161.34478579999995,None,Subj_049,Run1,group_Mand,2022_Sep_15_1523,Tone_Learning,2021.1.4,59.89548238272296,
stimuli/mi1-aN.wav,1,0,14,14,16,,,,,,,,164.24390603999927,164.54461989999982,None,0,,164.2436187000003,None,164.2436187000003,None,3.6,2.4,166.24535649999962,None,169.84672189999947,None,170.61113320000004,None,Subj_049,Run1,group_Mand,2022_Sep_15_1523,Tone_Learning,2021.1.4,59.89548238272296,
stimuli/di1-aN.wav,1,0,15,15,4,,,,,,,,174.21107264000057,None,1,1,0.8587922999995499,174.21162659999936,None,174.21162659999936,None,3.6,2.7,176.21155390000058,None,179.8111955000004,None,180.56220869999925,None,Subj_049,Run1,group_Mand,2022_Sep_15_1523,Tone_Learning,2021.1.4,59.89548238272296,
stimuli/ma3-aN.wav,3,0,16,16,14,,,,,,,,184.1781924400002,None,3,1,1.7121037999986584,184.17736289999993,None,184.17736289999993,None,4.0,2.1,186.17774839999947,None,190.1777705000004,None,190.92846099999952,None,Subj_049,Run1,group_Mand,2022_Sep_15_1523,Tone_Learning,2021.1.4,59.89548238272296,
stimuli/lu3-aN.wav,3,0,17,17,10,,,,,,,,194.92801103999955,None,None,0,,194.92868369999997,None,194.92868369999997,None,3.4,2.7,196.94440079999913,None,200.34744920000048,None,201.11133770000015,None,Subj_049,Run1,group_Mand,2022_Sep_15_1523,Tone_Learning,2021.1.4,59.89548238272296,
stimuli/ma1-iN.wav,1,0,18,18,32,,,,,,,,204.5106918399997,None,None,0,,204.51129480000054,None,204.51129480000054,None,2.8,1.7,206.51139370000055,None,209.31099320000067,None,210.06148009999924,None,Subj_049,Run1,group_Mand,2022_Sep_15_1523,Tone_Learning,2021.1.4,59.89548238272296,
stimuli/lu3-iN.wav,3,0,19,19,30,,,,,,,,212.8616509399999,None,None,0,,212.8627467999995,None,212.8627467999995,None,3.3,2.3,214.87780159999966,None,218.1778990999992,None,218.92805699999917,None,Subj_049,Run1,group_Mand,2022_Sep_15_1523,Tone_Learning,2021.1.4,59.89548238272296,
stimuli/mi4-iN.wav,4,0,20,20,39,,,,,,,,222.2287326400001,None,4,1,1.5653674000004685,222.22836859999916,None,222.22836859999916,None,2.7,2.1,224.2276311000005,None,226.92998029999944,None,227.69473839999955,None,Subj_049,Run1,group_Mand,2022_Sep_15_1523,Tone_Learning,2021.1.4,59.89548238272296,
stimuli/bu1-aN.wav,1,0,21,21,0,,,,,,,,230.39475483999922,230.6943486,None,0,,230.39508430000024,None,230.39508430000024,None,3.0,2.9,232.39450009999928,None,235.39645329999985,None,236.1619928,None,Subj_049,Run1,group_Mand,2022_Sep_15_1523,Tone_Learning,2021.1.4,59.89548238272296,
stimuli/di3-iN.wav,3,0,22,22,26,,,,,,,,239.16120473999945,239.4627588000003,None,0,,239.16172539999934,None,239.16172539999934,None,2.2,2.6,241.16164000000026,None,243.36155529999996,None,244.11156859999937,None,Subj_049,Run1,group_Mand,2022_Sep_15_1523,Tone_Learning,2021.1.4,59.89548238272296,
stimuli/ma4-iN.wav,4,0,23,23,35,,,,,,,,246.31226434000018,246.6118129000006,4,1,1.340620900000431,246.31200220000028,None,246.31200220000028,None,2.8,1.0,248.31197939999947,None,251.1131734999999,None,251.86182740000004,None,Subj_049,Run1,group_Mand,2022_Sep_15_1523,Tone_Learning,2021.1.4,59.89548238272296,
stimuli/null.wav,0,0,24,24,41,,,,,,,,254.6619603399995,254.96161659999962,None,0,,254.66189920000033,None,254.66189920000033,None,3.4,1.8,256.6625107,None,260.0784760000006,None,260.8284803000006,None,Subj_049,Run1,group_Mand,2022_Sep_15_1523,Tone_Learning,2021.1.4,59.89548238272296,
stimuli/bu4-aN.wav,4,0,25,25,3,,,,,,,,264.2284022399999,None,None,0,,264.2286390999998,None,264.2286390999998,None,3.7,2.7,266.2276800999989,None,269.9303827999993,None,270.6942743999989,None,Subj_049,Run1,group_Mand,2022_Sep_15_1523,Tone_Learning,2021.1.4,59.89548238272296,
stimuli/ma4-aN.wav,4,0,26,26,15,,,,,,,,274.39493824000056,274.6952457999996,4,1,1.91486199999963,274.39500489999955,None,274.39500489999955,None,2.3,2.4,276.3946918999991,None,278.69718400000056,None,279.46259029999965,None,Subj_049,Run1,group_Mand,2022_Sep_15_1523,Tone_Learning,2021.1.4,59.89548238272296,
stimuli/bu3-iN.wav,3,0,27,27,22,,,,,,,,281.7789470400003,282.0781320999995,None,0,,281.7792042000001,None,281.7792042000001,None,3.8,2.5,283.7789068000002,None,287.581250199999,None,288.3448883000001,None,Subj_049,Run1,group_Mand,2022_Sep_15_1523,Tone_Learning,2021.1.4,59.89548238272296,
stimuli/mi4-aN.wav,4,0,28,28,19,,,,,,,,292.1457873399995,292.44580940000014,4,1,1.617356099999597,292.14583069999935,None,292.14583069999935,None,2.4,2.6,294.14581949999956,None,296.5615928999996,None,297.31243689999974,None,Subj_049,Run1,group_Mand,2022_Sep_15_1523,Tone_Learning,2021.1.4,59.89548238272296,
stimuli/bu2-iN.wav,2,0,29,29,21,,,,,,,,299.7123558399999,300.0121844000005,2,1,1.6011877999990247,299.7124318999995,None,299.7124318999995,None,3.4,2.4,301.71198340000046,None,305.1117589000005,None,305.86227639999925,None,Subj_049,Run1,group_Mand,2022_Sep_15_1523,Tone_Learning,2021.1.4,59.89548238272296,
stimuli/lu2-aN.wav,2,0,30,30,9,,,,,,,,309.26308273999894,309.562779599999,None,0,,309.26171369999975,None,309.26171369999975,None,3.1,1.3,311.26216999999997,None,314.3629373999993,None,315.1290575000003,None,Subj_049,Run1,group_Mand,2022_Sep_15_1523,Tone_Learning,2021.1.4,59.89548238272296,
stimuli/mi2-aN.wav,2,0,31,31,17,,,,,,,,318.22912343999997,None,2,1,1.483175299999857,318.2288926000001,None,318.2288926000001,None,3.3,2.4,320.2286686000007,None,323.5351518999996,None,324.2956620999994,None,Subj_049,Run1,group_Mand,2022_Sep_15_1523,Tone_Learning,2021.1.4,59.89548238272296,
stimuli/mi3-iN.wav,3,0,32,32,38,,,,,,,,327.5959874399996,327.89509220000036,3,1,1.5312848999983544,327.5957116999998,None,327.5957116999998,None,2.3,1.1,329.5952269999998,None,331.8955272000003,None,332.6454455999992,None,Subj_049,Run1,group_Mand,2022_Sep_15_1523,Tone_Learning,2021.1.4,59.89548238272296,
stimuli/ma2-iN.wav,2,0,33,33,33,,,,,,,,334.94514523999896,335.2448371999999,2,1,1.7497320000002219,334.94528209999953,None,334.94528209999953,None,3.2,1.8,336.94534079999903,None,340.14570450000065,None,340.89569669999946,None,Subj_049,Run1,group_Mand,2022_Sep_15_1523,Tone_Learning,2021.1.4,59.89548238272296,
stimuli/bu3-aN.wav,3,0,34,34,2,,,,,,,,344.0956486399991,344.39576619999934,None,0,,344.09614619999957,None,344.09614619999957,None,2.2,2.7,346.0968174999998,None,348.3147134999999,None,349.079523299999,None,Subj_049,Run1,group_Mand,2022_Sep_15_1523,Tone_Learning,2021.1.4,59.89548238272296,
stimuli/mi1-iN.wav,1,0,35,35,36,,,,,,,,351.2793543400003,351.57907010000054,None,0,,351.27939119999974,None,351.27939119999974,None,3.9,1.5,353.27872539999953,None,357.17876160000014,None,357.92872999999963,None,Subj_049,Run1,group_Mand,2022_Sep_15_1523,Tone_Learning,2021.1.4,59.89548238272296,
stimuli/di4-iN.wav,4,0,36,36,27,,,,,,,,361.8306076400004,362.1286994000002,4,1,1.5442504000002373,361.8294155000003,None,361.8294155000003,None,3.9,2.9,363.82882099999915,None,367.72934349999923,None,368.47978560000047,None,Subj_049,Run1,group_Mand,2022_Sep_15_1523,Tone_Learning,2021.1.4,59.89548238272296,
stimuli/bu1-iN.wav,1,0,37,37,20,,,,,,,,372.3790156399991,None,1,1,1.618558899999698,372.3790375999997,None,372.3790375999997,None,3.6,3.0,374.3802797999997,None,377.97962390000066,None,378.72882220000065,None,Subj_049,Run1,group_Mand,2022_Sep_15_1523,Tone_Learning,2021.1.4,59.89548238272296,
stimuli/lu4-aN.wav,4,0,38,38,11,,,,,,,,382.3306194399993,None,4,1,1.6338913999989018,382.3292325000002,None,382.3292325000002,None,2.1,1.7,384.32987329999924,None,386.42924909999965,None,387.17927099999906,None,Subj_049,Run1,group_Mand,2022_Sep_15_1523,Tone_Learning,2021.1.4,59.89548238272296,
stimuli/lu1-aN.wav,1,0,39,39,8,,,,,,,,389.2789701399997,None,None,0,,389.27893369999947,None,389.27893369999947,None,3.4,2.9,391.27888639999946,None,394.67934409999907,None,395.42963169999894,None,Subj_049,Run1,group_Mand,2022_Sep_15_1523,Tone_Learning,2021.1.4,59.89548238272296,
stimuli/lu4-iN.wav,4,0,40,40,31,,,,,,,,398.82888633999937,None,4,1,1.1569555000005494,398.8289406999993,None,398.8289406999993,None,3.0,1.1,400.82925179999984,None,403.8290887999992,None,404.57933500000036,None,Subj_049,Run1,group_Mand,2022_Sep_15_1523,Tone_Learning,2021.1.4,59.89548238272296,
stimuli/null.wav,0,0,41,41,44,,,,,,,,407.5799477399996,407.87963409999975,None,0,,407.5796281999992,None,407.5796281999992,None,3.2,2.3,409.57929499999955,None,412.7798239999993,None,413.5293748999993,None,Subj_049,Run1,group_Mand,2022_Sep_15_1523,Tone_Learning,2021.1.4,59.89548238272296,
stimuli/bu2-aN.wav,2,0,42,42,1,,,,,,,,416.7297237399998,None,2,1,1.8649891999993997,416.7298429000002,None,416.7298429000002,None,3.6,1.1,418.7296578000005,None,422.3317367999989,None,423.09639269999934,None,Subj_049,Run1,group_Mand,2022_Sep_15_1523,Tone_Learning,2021.1.4,59.89548238272296,
stimuli/mi2-iN.wav,2,0,43,43,37,,,,,,,,426.69555344000037,426.99613490000047,None,0,,426.6957086000002,None,426.6957086000002,None,3.0,2.2,428.6956795999995,None,431.7012584999993,None,432.4630201,None,Subj_049,Run1,group_Mand,2022_Sep_15_1523,Tone_Learning,2021.1.4,59.89548238272296,
stimuli/ma1-aN.wav,1,0,44,44,12,,,,,,,,435.46339244000046,435.7629543999992,1,1,1.6274419000001217,435.46466229999896,None,435.46466229999896,None,2.1,1.0,437.4795317999997,None,439.58078639999985,None,440.3459103999994,None,Subj_049,Run1,group_Mand,2022_Sep_15_1523,Tone_Learning,2021.1.4,59.89548238272296,
